"participant_id","fsm_number","trial_number","state_current","response_current","state_next","state_1","response_1","state_2","response_2","state_3","response_time","response_time_lessThan300ms","trial_id"
1,22,1,0,"b",3,NA,NA,NA,NA,NA,897.920000071528,0,"0b3"
1,22,2,3,"b",3,0,"b",3,"b",3,642.468999999997,0,"3b3"
1,22,3,3,"b",2,3,"b",3,"b",2,434.645000095363,0,"3b2"
1,22,4,2,"b",1,3,"b",2,"b",1,644.809000095367,0,"2b1"
1,22,5,1,"a",0,2,"b",1,"a",0,1229.82400009537,0,"1a0"
1,22,6,0,"a",3,1,"a",0,"a",3,2248.50100002384,0,"0a3"
1,22,7,3,"a",2,0,"a",3,"a",2,630.087,0,"3a2"
1,22,8,2,"b",0,3,"a",2,"b",0,426.436000000002,0,"2b0"
1,22,9,0,"a",3,2,"b",0,"a",3,448.450000047684,0,"0a3"
1,22,10,3,"b",2,0,"a",3,"b",2,560.525000023845,0,"3b2"
1,22,11,2,"a",2,3,"b",2,"a",2,1174.60400004768,0,"2a2"
1,22,12,2,"a",2,2,"a",2,"a",2,1751.25700004768,0,"2a2"
1,22,13,2,"a",2,2,"a",2,"a",2,501.485000095374,0,"2a2"
1,22,14,2,"a",2,2,"a",2,"a",2,710.615000047677,0,"2a2"
1,22,15,2,"a",2,2,"a",2,"a",2,494.005000023841,0,"2a2"
1,22,16,2,"a",2,2,"a",2,"a",2,473.348000071521,0,"2a2"
1,22,17,2,"b",1,2,"a",2,"b",1,545.873000023843,0,"2b1"
1,22,18,1,"b",1,2,"b",1,"b",1,503.477000023835,0,"1b1"
1,22,19,1,"b",1,1,"b",1,"b",1,497.718999999997,0,"1b1"
1,22,20,1,"b",1,1,"b",1,"b",1,356.276000095371,0,"1b1"
1,22,21,1,"b",3,1,"b",1,"b",3,422.010000071532,0,"1b3"
1,22,22,3,"b",2,1,"b",3,"b",2,297.434000023844,1,"3b2"
1,22,23,2,"b",1,3,"b",2,"b",1,408.317000071533,0,"2b1"
1,22,24,1,"b",3,2,"b",1,"b",3,251.436000023838,1,"1b3"
1,22,25,3,"b",3,1,"b",3,"b",3,372.150000071531,0,"3b3"
1,22,26,3,"b",2,3,"b",3,"b",2,533.389000095369,0,"3b2"
1,22,27,2,"b",0,3,"b",2,"b",0,590.242000095372,0,"2b0"
1,22,28,0,"b",3,2,"b",0,"b",3,363.791000023848,0,"0b3"
1,22,29,3,"a",0,0,"b",3,"a",0,460.57500009537,0,"3a0"
1,22,30,0,"a",3,3,"a",0,"a",3,267.734000023847,1,"0a3"
1,22,31,3,"a",2,0,"a",3,"a",2,308.093000095367,0,"3a2"
1,22,32,2,"a",2,3,"a",2,"a",2,230.013999999996,1,"2a2"
1,22,33,2,"b",1,2,"a",2,"b",1,807.303,0,"2b1"
1,22,34,1,"a",1,2,"b",1,"a",1,379.065000095361,0,"1a1"
1,22,35,1,"a",1,1,"a",1,"a",1,337.971000000005,0,"1a1"
1,22,36,1,"a",0,1,"a",1,"a",0,329.192000047682,0,"1a0"
1,22,37,0,"a",3,1,"a",0,"a",3,243.677000095369,1,"0a3"
1,22,38,3,"a",2,0,"a",3,"a",2,487.215000047683,0,"3a2"
1,22,39,2,"b",1,3,"a",2,"b",1,1457.17600004768,0,"2b1"
1,22,40,1,"a",1,2,"b",1,"a",1,853.140000071522,0,"1a1"
1,22,41,1,"b",3,1,"a",1,"b",3,275.43000007153,1,"1b3"
1,22,42,3,"a",0,1,"b",3,"a",0,214.988000047684,1,"3a0"
1,22,43,0,"a",3,3,"a",0,"a",3,252.704000095371,1,"0a3"
1,22,44,3,"a",2,0,"a",3,"a",2,254.762000023853,1,"3a2"
1,22,45,2,"a",2,3,"a",2,"a",2,594.556000023847,0,"2a2"
2,21,1,2,"a",3,NA,NA,NA,NA,NA,4655.49400000149,0,"2a3"
2,21,2,3,"a",1,2,"a",3,"a",1,3434.69100000149,0,"3a1"
2,21,3,1,"a",0,3,"a",1,"a",0,4201.37800000224,0,"1a0"
2,21,4,0,"a",2,1,"a",0,"a",2,1834.69300000148,0,"0a2"
2,21,5,2,"b",2,0,"a",2,"b",2,1632.54500000298,0,"2b2"
2,21,6,2,"b",2,2,"b",2,"b",2,1436.287,0,"2b2"
2,21,7,2,"b",2,2,"b",2,"b",2,775.860000000001,0,"2b2"
2,21,8,2,"a",0,2,"b",2,"a",0,915.408000001495,0,"2a0"
2,21,9,0,"a",2,2,"a",0,"a",2,2816.1430000015,0,"0a2"
2,21,10,2,"a",0,0,"a",2,"a",0,2982.63300000149,0,"2a0"
2,21,11,0,"a",2,2,"a",0,"a",2,2695.65400000298,0,"0a2"
2,21,12,2,"a",0,0,"a",2,"a",0,868.602000001483,0,"2a0"
2,21,13,0,"a",2,2,"a",0,"a",2,1162.13300000149,0,"0a2"
2,21,14,2,"b",2,0,"a",2,"b",2,1011.8480000015,0,"2b2"
2,21,15,2,"b",2,2,"b",2,"b",2,605.498000001491,0,"2b2"
2,21,16,2,"b",2,2,"b",2,"b",2,404.034000002241,0,"2b2"
2,21,17,2,"b",2,2,"b",2,"b",2,617.974000002985,0,"2b2"
2,21,18,2,"a",3,2,"b",2,"a",3,444.762000002986,0,"2a3"
2,21,19,3,"a",0,2,"a",3,"a",0,625.093000002977,0,"3a0"
2,21,20,0,"a",2,3,"a",0,"a",2,616.652000002985,0,"0a2"
2,21,21,2,"a",3,0,"a",2,"a",3,478.488000002981,0,"2a3"
2,21,22,3,"a",1,2,"a",3,"a",1,561.459000002986,0,"3a1"
2,21,23,1,"a",0,3,"a",1,"a",0,256.463000000746,1,"1a0"
2,21,24,0,"a",2,1,"a",0,"a",2,435.468000001492,0,"0a2"
2,21,25,2,"a",0,0,"a",2,"a",0,1569.98800000074,0,"2a0"
2,21,26,0,"a",2,2,"a",0,"a",2,651.382000002981,0,"0a2"
2,21,27,2,"a",0,0,"a",2,"a",0,505.834000002971,0,"2a0"
2,21,28,0,"a",2,2,"a",0,"a",2,560.796000002971,0,"0a2"
2,21,29,2,"a",0,0,"a",2,"a",0,868.840000000753,0,"2a0"
2,21,30,0,"a",2,2,"a",0,"a",2,515.697000001499,0,"0a2"
2,21,31,2,"a",3,0,"a",2,"a",3,1538.47700000298,0,"2a3"
2,21,32,3,"a",1,2,"a",3,"a",1,470.273000002984,0,"3a1"
2,21,33,1,"a",0,3,"a",1,"a",0,344.94300000224,0,"1a0"
2,21,34,0,"a",2,1,"a",0,"a",2,409.423000002222,0,"0a2"
2,21,35,2,"a",0,0,"a",2,"a",0,272.471000000747,1,"2a0"
2,21,36,0,"a",2,2,"a",0,"a",2,357.913000002969,0,"0a2"
2,21,37,2,"a",0,0,"a",2,"a",0,443.025000002992,0,"2a0"
2,21,38,0,"a",2,2,"a",0,"a",2,430.733000001492,0,"0a2"
2,21,39,2,"a",0,0,"a",2,"a",0,514.98900000297,0,"2a0"
2,21,40,0,"a",2,2,"a",0,"a",2,522.516000001488,0,"0a2"
2,21,41,2,"a",3,0,"a",2,"a",3,801.128000002995,0,"2a3"
2,21,42,3,"a",0,2,"a",3,"a",0,363.679000002972,0,"3a0"
2,21,43,0,"a",2,3,"a",0,"a",2,372.531000000745,0,"0a2"
2,21,44,2,"a",3,0,"a",2,"a",3,254.965000000753,1,"2a3"
2,21,45,3,"a",0,2,"a",3,"a",0,961.141000002972,0,"3a0"
3,21,1,2,"b",2,NA,NA,NA,NA,NA,2698.24699997615,0,"2b2"
3,21,2,2,"a",0,2,"b",2,"a",0,2576.14500007153,0,"2a0"
3,21,3,0,"b",2,2,"a",0,"b",2,2992.60800007153,0,"0b2"
3,21,4,2,"b",2,0,"b",2,"b",2,2174.83100004768,0,"2b2"
3,21,5,2,"a",3,2,"b",2,"a",3,2419.43200002384,0,"2a3"
3,21,6,3,"a",1,2,"a",3,"a",1,1654.11900004768,0,"3a1"
3,21,7,1,"a",0,3,"a",1,"a",0,1777.20599997615,0,"1a0"
3,21,8,0,"b",2,1,"a",0,"b",2,1163.97800002384,0,"0b2"
3,21,9,2,"b",2,0,"b",2,"b",2,1952.64599999999,0,"2b2"
3,21,10,2,"a",0,2,"b",2,"a",0,1514.80500004768,0,"2a0"
3,21,11,0,"a",2,2,"a",0,"a",2,788.731999976153,0,"0a2"
3,21,12,2,"a",3,0,"a",2,"a",3,862.547999976159,0,"2a3"
3,21,13,3,"b",3,2,"a",3,"b",3,676.068999976153,0,"3b3"
3,21,14,3,"b",3,3,"b",3,"b",3,1336.89399997616,0,"3b3"
3,21,15,3,"b",3,3,"b",3,"b",3,902.722000023845,0,"3b3"
3,21,16,3,"a",1,3,"b",3,"a",1,637.648000047688,0,"3a1"
3,21,17,1,"a",0,3,"a",1,"a",0,1700.57500007152,0,"1a0"
3,21,18,0,"a",2,1,"a",0,"a",2,1215.17300002385,0,"0a2"
3,21,19,2,"a",0,0,"a",2,"a",0,949.989000000001,0,"2a0"
3,21,20,0,"a",2,2,"a",0,"a",2,727.407999999996,0,"0a2"
3,21,21,2,"b",2,0,"a",2,"b",2,1109.005,0,"2b2"
3,21,22,2,"b",2,2,"b",2,"b",2,920.373999976146,0,"2b2"
3,21,23,2,"b",2,2,"b",2,"b",2,641.988000023848,0,"2b2"
3,21,24,2,"a",0,2,"b",2,"a",0,1138.58300004769,0,"2a0"
3,21,25,0,"b",2,2,"a",0,"b",2,2234.98600004768,0,"0b2"
3,21,26,2,"b",2,0,"b",2,"b",2,1337.31200000001,0,"2b2"
3,21,27,2,"a",0,2,"b",2,"a",0,761.910000071512,0,"2a0"
3,21,28,0,"a",2,2,"a",0,"a",2,1177.56099999999,0,"0a2"
3,21,29,2,"a",3,0,"a",2,"a",3,1185.519,0,"2a3"
3,21,30,3,"b",3,2,"a",3,"b",3,935.614999976155,0,"3b3"
3,21,31,3,"a",0,3,"b",3,"a",0,886.584000023839,0,"3a0"
3,21,32,0,"a",2,3,"a",0,"a",2,846.238000023848,0,"0a2"
3,21,33,2,"b",2,0,"a",2,"b",2,1107.71599999999,0,"2b2"
3,21,34,2,"a",0,2,"b",2,"a",0,1442.57299997617,0,"2a0"
3,21,35,0,"a",2,2,"a",0,"a",2,1947.51900007154,0,"0a2"
3,21,36,2,"a",3,0,"a",2,"a",3,1832.97200007152,0,"2a3"
3,21,37,3,"a",1,2,"a",3,"a",1,726.255000071513,0,"3a1"
3,21,38,1,"a",0,3,"a",1,"a",0,911.839000023843,0,"1a0"
3,21,39,0,"a",2,1,"a",0,"a",2,924.704999999987,0,"0a2"
3,21,40,2,"a",0,0,"a",2,"a",0,956.335000047693,0,"2a0"
3,21,41,0,"a",2,2,"a",0,"a",2,983.530000047671,0,"0a2"
3,21,42,2,"b",2,0,"a",2,"b",2,1684.21700007151,0,"2b2"
3,21,43,2,"a",3,2,"b",2,"a",3,1510.73300000001,0,"2a3"
3,21,44,3,"a",0,2,"a",3,"a",0,1822.68800007153,0,"3a0"
3,21,45,0,"a",2,3,"a",0,"a",2,911.355000023847,0,"0a2"
4,22,1,2,"a",2,NA,NA,NA,NA,NA,781,0,"2a2"
4,22,2,2,"b",0,2,"a",2,"b",0,897,0,"2b0"
4,22,3,0,"b",3,2,"b",0,"b",3,956,0,"0b3"
4,22,4,3,"b",3,0,"b",3,"b",3,1082,0,"3b3"
4,22,5,3,"b",2,3,"b",3,"b",2,863,0,"3b2"
4,22,6,2,"b",1,3,"b",2,"b",1,1130,0,"2b1"
4,22,7,1,"b",1,2,"b",1,"b",1,579,0,"1b1"
4,22,8,1,"b",3,1,"b",1,"b",3,516,0,"1b3"
4,22,9,3,"b",2,1,"b",3,"b",2,469,0,"3b2"
4,22,10,2,"b",1,3,"b",2,"b",1,575,0,"2b1"
4,22,11,1,"b",3,2,"b",1,"b",3,421,0,"1b3"
4,22,12,3,"b",2,1,"b",3,"b",2,386,0,"3b2"
4,22,13,2,"b",1,3,"b",2,"b",1,330,0,"2b1"
4,22,14,1,"a",1,2,"b",1,"a",1,4363,0,"1a1"
4,22,15,1,"a",1,1,"a",1,"a",1,831,0,"1a1"
4,22,16,1,"a",0,1,"a",1,"a",0,533,0,"1a0"
4,22,17,0,"a",3,1,"a",0,"a",3,732,0,"0a3"
4,22,18,3,"a",0,0,"a",3,"a",0,1588,0,"3a0"
4,22,19,0,"a",3,3,"a",0,"a",3,1110,0,"0a3"
4,22,20,3,"a",2,0,"a",3,"a",2,578,0,"3a2"
4,22,21,2,"a",2,3,"a",2,"a",2,574,0,"2a2"
4,22,22,2,"a",2,2,"a",2,"a",2,466,0,"2a2"
4,22,23,2,"a",2,2,"a",2,"a",2,497,0,"2a2"
4,22,24,2,"a",2,2,"a",2,"a",2,671,0,"2a2"
4,22,25,2,"a",2,2,"a",2,"a",2,481,0,"2a2"
4,22,26,2,"b",0,2,"a",2,"b",0,2540,0,"2b0"
4,22,27,0,"a",3,2,"b",0,"a",3,639,0,"0a3"
4,22,28,3,"b",3,0,"a",3,"b",3,438,0,"3b3"
4,22,29,3,"a",2,3,"b",3,"a",2,1549,0,"3a2"
4,22,30,2,"b",1,3,"a",2,"b",1,531,0,"2b1"
4,22,31,1,"b",1,2,"b",1,"b",1,1914,0,"1b1"
4,22,32,1,"b",1,1,"b",1,"b",1,723,0,"1b1"
4,22,33,1,"b",3,1,"b",1,"b",3,470,0,"1b3"
4,22,34,3,"a",2,1,"b",3,"a",2,1271,0,"3a2"
4,22,35,2,"a",2,3,"a",2,"a",2,860,0,"2a2"
4,22,36,2,"b",0,2,"a",2,"b",0,650,0,"2b0"
4,22,37,0,"b",3,2,"b",0,"b",3,330,0,"0b3"
4,22,38,3,"a",0,0,"b",3,"a",0,10942,0,"3a0"
4,22,39,0,"a",3,3,"a",0,"a",3,1082,0,"0a3"
4,22,40,3,"a",2,0,"a",3,"a",2,1219,0,"3a2"
4,22,41,2,"a",2,3,"a",2,"a",2,1046,0,"2a2"
4,22,42,2,"a",2,2,"a",2,"a",2,760,0,"2a2"
4,22,43,2,"a",2,2,"a",2,"a",2,391,0,"2a2"
4,22,44,2,"b",1,2,"a",2,"b",1,720,0,"2b1"
4,22,45,1,"b",1,2,"b",1,"b",1,2126,0,"1b1"
5,22,1,2,"b",0,NA,NA,NA,NA,NA,4904.048,0,"2b0"
5,22,2,0,"b",3,2,"b",0,"b",3,1441.39900001192,0,"0b3"
5,22,3,3,"b",2,0,"b",3,"b",2,1300.147,0,"3b2"
5,22,4,2,"b",1,3,"b",2,"b",1,1682.35600004769,0,"2b1"
5,22,5,1,"a",0,2,"b",1,"a",0,2003.62400001191,0,"1a0"
5,22,6,0,"a",3,1,"a",0,"a",3,3256.924,0,"0a3"
5,22,7,3,"a",0,0,"a",3,"a",0,1811.71200003577,0,"3a0"
5,22,8,0,"a",3,3,"a",0,"a",3,1244.57100003576,0,"0a3"
5,22,9,3,"a",2,0,"a",3,"a",2,1093.98199999999,0,"3a2"
5,22,10,2,"a",2,3,"a",2,"a",2,1626.32600003577,0,"2a2"
5,22,11,2,"a",2,2,"a",2,"a",2,1438.69400001192,0,"2a2"
5,22,12,2,"b",1,2,"a",2,"b",1,1200.68700000001,0,"2b1"
5,22,13,1,"b",1,2,"b",1,"b",1,1060.27400004768,0,"1b1"
5,22,14,1,"b",3,1,"b",1,"b",3,880.725000000006,0,"1b3"
5,22,15,3,"b",3,1,"b",3,"b",3,1985.99500001193,0,"3b3"
5,22,16,3,"b",3,3,"b",3,"b",3,531.913000047673,0,"3b3"
5,22,17,3,"b",2,3,"b",3,"b",2,532.64000002385,0,"3b2"
5,22,18,2,"a",2,3,"b",2,"a",2,668.738000023848,0,"2a2"
5,22,19,2,"a",2,2,"a",2,"a",2,384.985000035755,0,"2a2"
5,22,20,2,"a",2,2,"a",2,"a",2,603.670000023849,0,"2a2"
5,22,21,2,"a",2,2,"a",2,"a",2,695.300000035757,0,"2a2"
5,22,22,2,"b",1,2,"a",2,"b",1,474.519000047672,0,"2b1"
5,22,23,1,"b",3,2,"b",1,"b",3,499.632000047684,0,"1b3"
5,22,24,3,"b",2,1,"b",3,"b",2,751.900000011927,0,"3b2"
5,22,25,2,"b",0,3,"b",2,"b",0,457.703999999998,0,"2b0"
5,22,26,0,"b",3,2,"b",0,"b",3,552.800000011921,0,"0b3"
5,22,27,3,"a",0,0,"b",3,"a",0,676.913,0,"3a0"
5,22,28,0,"a",3,3,"a",0,"a",3,551.113000035752,0,"0a3"
5,22,29,3,"a",2,0,"a",3,"a",2,1052.32000000001,0,"3a2"
5,22,30,2,"a",2,3,"a",2,"a",2,755.644000035769,0,"2a2"
5,22,31,2,"a",2,2,"a",2,"a",2,940.07699999999,0,"2a2"
5,22,32,2,"a",2,2,"a",2,"a",2,646.938000035763,0,"2a2"
5,22,33,2,"b",0,2,"a",2,"b",0,390.588000011921,0,"2b0"
5,22,34,0,"b",3,2,"b",0,"b",3,705.702000023855,0,"0b3"
5,22,35,3,"b",2,0,"b",3,"b",2,385.152000047674,0,"3b2"
5,22,36,2,"b",1,3,"b",2,"b",1,563.897000035766,0,"2b1"
5,22,37,1,"b",1,2,"b",1,"b",1,744.522000023833,0,"1b1"
5,22,38,1,"b",1,1,"b",1,"b",1,737.250999999989,0,"1b1"
5,22,39,1,"b",1,1,"b",1,"b",1,464.404999999999,0,"1b1"
5,22,40,1,"a",0,1,"b",1,"a",0,516.44800002384,0,"1a0"
5,22,41,0,"a",3,1,"a",0,"a",3,385.043999999994,0,"0a3"
5,22,42,3,"a",2,0,"a",3,"a",2,571.613000000012,0,"3a2"
5,22,43,2,"a",2,3,"a",2,"a",2,474.00900003576,0,"2a2"
5,22,44,2,"a",2,2,"a",2,"a",2,426.127000035776,0,"2a2"
5,22,45,2,"b",1,2,"a",2,"b",1,501.67300000001,0,"2b1"
6,22,1,2,"b",1,NA,NA,NA,NA,NA,2774.00000000001,0,"2b1"
6,22,2,1,"a",1,2,"b",1,"a",1,2341,0,"1a1"
6,22,3,1,"a",0,1,"a",1,"a",0,2124.00000000001,0,"1a0"
6,22,4,0,"a",3,1,"a",0,"a",3,1707,0,"0a3"
6,22,5,3,"b",3,0,"a",3,"b",3,1041,0,"3b3"
6,22,6,3,"b",2,3,"b",3,"b",2,691,0,"3b2"
6,22,7,2,"b",1,3,"b",2,"b",1,1024.00000000001,0,"2b1"
6,22,8,1,"a",0,2,"b",1,"a",0,2358,0,"1a0"
6,22,9,0,"b",3,1,"a",0,"b",3,1141,0,"0b3"
6,22,10,3,"a",2,0,"b",3,"a",2,707,0,"3a2"
6,22,11,2,"b",1,3,"a",2,"b",1,590,0,"2b1"
6,22,12,1,"a",1,2,"b",1,"a",1,1090,0,"1a1"
6,22,13,1,"a",1,1,"a",1,"a",1,791,0,"1a1"
6,22,14,1,"a",0,1,"a",1,"a",0,757,0,"1a0"
6,22,15,0,"a",3,1,"a",0,"a",3,873.000000000015,0,"0a3"
6,22,16,3,"b",2,0,"a",3,"b",2,1157,0,"3b2"
6,22,17,2,"a",2,3,"b",2,"a",2,1257.00000000001,0,"2a2"
6,22,18,2,"a",2,2,"a",2,"a",2,924,0,"2a2"
6,22,19,2,"a",2,2,"a",2,"a",2,925,0,"2a2"
6,22,20,2,"a",2,2,"a",2,"a",2,658,0,"2a2"
6,22,21,2,"b",0,2,"a",2,"b",0,908.000000000015,0,"2b0"
6,22,22,0,"b",3,2,"b",0,"b",3,1207,0,"0b3"
6,22,23,3,"a",0,0,"b",3,"a",0,991.000000000015,0,"3a0"
6,22,24,0,"a",3,3,"a",0,"a",3,1440,0,"0a3"
6,22,25,3,"a",2,0,"a",3,"a",2,15004,0,"3a2"
6,22,26,2,"b",0,3,"a",2,"b",0,2107,0,"2b0"
6,22,27,0,"a",3,2,"b",0,"a",3,623,0,"0a3"
6,22,28,3,"b",3,0,"a",3,"b",3,691,0,"3b3"
6,22,29,3,"a",2,3,"b",3,"a",2,524,0,"3a2"
6,22,30,2,"a",2,3,"a",2,"a",2,574,0,"2a2"
6,22,31,2,"a",2,2,"a",2,"a",2,457,0,"2a2"
6,22,32,2,"a",2,2,"a",2,"a",2,591,0,"2a2"
6,22,33,2,"b",0,2,"a",2,"b",0,457,0,"2b0"
6,22,34,0,"b",3,2,"b",0,"b",3,1091,0,"0b3"
6,22,35,3,"b",2,0,"b",3,"b",2,823,0,"3b2"
6,22,36,2,"a",2,3,"b",2,"a",2,540,0,"2a2"
6,22,37,2,"b",1,2,"a",2,"b",1,557,0,"2b1"
6,22,38,1,"b",3,2,"b",1,"b",3,507,0,"1b3"
6,22,39,3,"a",0,1,"b",3,"a",0,374,0,"3a0"
6,22,40,0,"a",3,3,"a",0,"a",3,623,0,"0a3"
6,22,41,3,"a",0,0,"a",3,"a",0,741,0,"3a0"
6,22,42,0,"b",3,3,"a",0,"b",3,824,0,"0b3"
6,22,43,3,"a",2,0,"b",3,"a",2,307,0,"3a2"
6,22,44,2,"a",2,3,"a",2,"a",2,424,0,"2a2"
6,22,45,2,"a",2,2,"a",2,"a",2,1391,0,"2a2"
7,22,1,2,"b",1,NA,NA,NA,NA,NA,5836.71699980927,0,"2b1"
7,22,2,1,"a",1,2,"b",1,"a",1,2817.49699995232,0,"1a1"
7,22,3,1,"b",3,1,"a",1,"b",3,3497.164,0,"1b3"
7,22,4,3,"b",2,1,"b",3,"b",2,3815.37299990463,0,"3b2"
7,22,5,2,"b",1,3,"b",2,"b",1,3678.60699999999,0,"2b1"
7,22,6,1,"a",0,2,"b",1,"a",0,2398.02699990463,0,"1a0"
7,22,7,0,"a",3,1,"a",0,"a",3,3909.74100000001,0,"0a3"
7,22,8,3,"a",0,0,"a",3,"a",0,3323.46399990463,0,"3a0"
7,22,9,0,"b",3,3,"a",0,"b",3,2283.3609999523,0,"0b3"
7,22,10,3,"a",2,0,"b",3,"a",2,2471.33599985694,0,"3a2"
7,22,11,2,"b",0,3,"a",2,"b",0,1680.66499990463,0,"2b0"
7,22,12,0,"b",3,2,"b",0,"b",3,607.210999952309,0,"0b3"
7,22,13,3,"b",2,0,"b",3,"b",2,1066.06599990462,0,"3b2"
7,22,14,2,"a",2,3,"b",2,"a",2,1305.20499999999,0,"2a2"
7,22,15,2,"a",2,2,"a",2,"a",2,3070.78499990463,0,"2a2"
7,22,16,2,"a",2,2,"a",2,"a",2,1059.76299980926,0,"2a2"
7,22,17,2,"b",1,2,"a",2,"b",1,3502.54199980927,0,"2b1"
7,22,18,1,"b",1,2,"b",1,"b",1,5437.57599990463,0,"1b1"
7,22,19,1,"b",3,1,"b",1,"b",3,3425.65499985695,0,"1b3"
7,22,20,3,"a",0,1,"b",3,"a",0,2490.41299990463,0,"3a0"
7,22,21,0,"a",3,3,"a",0,"a",3,7346.57800000001,0,"0a3"
7,22,22,3,"a",2,0,"a",3,"a",2,1439.74499995232,0,"3a2"
7,22,23,2,"b",0,3,"a",2,"b",0,1240.25999990464,0,"2b0"
7,22,24,0,"b",3,2,"b",0,"b",3,2285.58600000001,0,"0b3"
7,22,25,3,"b",3,0,"b",3,"b",3,1472.34499985696,0,"3b3"
7,22,26,3,"a",2,3,"b",3,"a",2,1383.68099995231,0,"3a2"
7,22,27,2,"b",0,3,"a",2,"b",0,2422.69199985694,0,"2b0"
7,22,28,0,"a",3,2,"b",0,"a",3,1615.25899999999,0,"0a3"
7,22,29,3,"a",0,0,"a",3,"a",0,1206.02899990464,0,"3a0"
7,22,30,0,"a",3,3,"a",0,"a",3,1433.28,0,"0a3"
7,22,31,3,"a",2,0,"a",3,"a",2,1460.28599995232,0,"3a2"
7,22,32,2,"b",0,3,"a",2,"b",0,1112.59599985695,0,"2b0"
7,22,33,0,"b",3,2,"b",0,"b",3,4071.13099990462,0,"0b3"
7,22,34,3,"b",2,0,"b",3,"b",2,2915.89499990465,0,"3b2"
7,22,35,2,"a",2,3,"b",2,"a",2,1066.95499985694,0,"2a2"
7,22,36,2,"b",1,2,"a",2,"b",1,1119.08799980927,0,"2b1"
7,22,37,1,"b",1,2,"b",1,"b",1,1723.55399980926,0,"1b1"
7,22,38,1,"a",0,1,"b",1,"a",0,801.930999856937,0,"1a0"
7,22,39,0,"a",3,1,"a",0,"a",3,1317.50699995231,0,"0a3"
7,22,40,3,"a",2,0,"a",3,"a",2,3088.96299980927,0,"3a2"
7,22,41,2,"b",1,3,"a",2,"b",1,2732.81299980928,0,"2b1"
7,22,42,1,"b",1,2,"b",1,"b",1,4749.18499995233,0,"1b1"
7,22,43,1,"a",1,1,"b",1,"a",1,8565.326,0,"1a1"
7,22,44,1,"b",1,1,"a",1,"b",1,683.786999904609,0,"1b1"
7,22,45,1,"b",3,1,"b",1,"b",3,449.578999952297,0,"1b3"
8,21,1,1,"b",0,NA,NA,NA,NA,NA,2716.58799998808,0,"1b0"
8,21,2,0,"a",2,1,"b",0,"a",2,2148.13700001192,0,"0a2"
8,21,3,2,"b",2,0,"a",2,"b",2,2368.17700002385,0,"2b2"
8,21,4,2,"a",0,2,"b",2,"a",0,1311.76000002385,0,"2a0"
8,21,5,0,"b",2,2,"a",0,"b",2,1747.13000001192,0,"0b2"
8,21,6,2,"a",0,0,"b",2,"a",0,1239.78599997616,0,"2a0"
8,21,7,0,"a",2,2,"a",0,"a",2,629.279999988081,0,"0a2"
8,21,8,2,"b",2,0,"a",2,"b",2,1409.24000001192,0,"2b2"
8,21,9,2,"a",3,2,"b",2,"a",3,1424.79399998808,0,"2a3"
8,21,10,3,"a",0,2,"a",3,"a",0,1262.73600001192,0,"3a0"
8,21,11,0,"a",2,3,"a",0,"a",2,917.491999976162,0,"0a2"
8,21,12,2,"a",0,0,"a",2,"a",0,702.433000011923,0,"2a0"
8,21,13,0,"a",2,2,"a",0,"a",2,1000.698,0,"0a2"
8,21,14,2,"b",2,0,"a",2,"b",2,1196.74599998808,0,"2b2"
8,21,15,2,"b",2,2,"b",2,"b",2,510.18899998808,0,"2b2"
8,21,16,2,"b",2,2,"b",2,"b",2,595.458999976152,0,"2b2"
8,21,17,2,"b",2,2,"b",2,"b",2,502.075999988083,0,"2b2"
8,21,18,2,"a",3,2,"b",2,"a",3,492.784000023836,0,"2a3"
8,21,19,3,"a",1,2,"a",3,"a",1,672.15200001192,0,"3a1"
8,21,20,1,"a",0,3,"a",1,"a",0,653.477999988085,0,"1a0"
8,21,21,0,"a",2,1,"a",0,"a",2,757.663000011918,0,"0a2"
8,21,22,2,"a",0,0,"a",2,"a",0,557.993999976155,0,"2a0"
8,21,23,0,"a",2,2,"a",0,"a",2,764.060000023848,0,"0a2"
8,21,24,2,"a",3,0,"a",2,"a",3,721.131999999998,0,"2a3"
8,21,25,3,"a",0,2,"a",3,"a",0,907.037000023847,0,"3a0"
8,21,26,0,"b",2,3,"a",0,"b",2,1254.54099998808,0,"0b2"
8,21,27,2,"a",0,0,"b",2,"a",0,615.616000023845,0,"2a0"
8,21,28,0,"a",2,2,"a",0,"a",2,712.378999976165,0,"0a2"
8,21,29,2,"b",2,0,"a",2,"b",2,1512.68600001192,0,"2b2"
8,21,30,2,"a",3,2,"b",2,"a",3,1076.15000001193,0,"2a3"
8,21,31,3,"a",1,2,"a",3,"a",1,736.865000023841,0,"3a1"
8,21,32,1,"b",0,3,"a",1,"b",0,2674.53400001192,0,"1b0"
8,21,33,0,"b",2,1,"b",0,"b",2,3907.47400001192,0,"0b2"
8,21,34,2,"b",2,0,"b",2,"b",2,1060.51299997617,0,"2b2"
8,21,35,2,"a",0,2,"b",2,"a",0,2103.19000002384,0,"2a0"
8,21,36,0,"a",2,2,"a",0,"a",2,526.12199998807,0,"0a2"
8,21,37,2,"b",2,0,"a",2,"b",2,1067.24300001192,0,"2b2"
8,21,38,2,"a",0,2,"b",2,"a",0,1473.64099998807,0,"2a0"
8,21,39,0,"a",2,2,"a",0,"a",2,1262.94999997615,0,"0a2"
8,21,40,2,"a",0,0,"a",2,"a",0,746.139999976149,0,"2a0"
8,21,41,0,"a",2,2,"a",0,"a",2,685.645999988075,0,"0a2"
8,21,42,2,"a",3,0,"a",2,"a",3,1304.99999997616,0,"2a3"
8,21,43,3,"a",1,2,"a",3,"a",1,14998.364,0,"3a1"
8,21,44,1,"b",0,3,"a",1,"b",0,2997.81699998808,0,"1b0"
8,21,45,0,"a",2,1,"b",0,"a",2,965.288999976154,0,"0a2"
9,21,1,0,"b",2,NA,NA,NA,NA,NA,3017.46000000001,0,"0b2"
9,21,2,2,"b",2,0,"b",2,"b",2,2723.38,0,"2b2"
9,21,3,2,"a",0,2,"b",2,"a",0,1512.78,0,"2a0"
9,21,4,0,"a",2,2,"a",0,"a",2,1806.79999999999,0,"0a2"
9,21,5,2,"b",2,0,"a",2,"b",2,4548.89999999999,0,"2b2"
9,21,6,2,"a",3,2,"b",2,"a",3,2476.29999999999,0,"2a3"
9,21,7,3,"a",1,2,"a",3,"a",1,901.220000000001,0,"3a1"
9,21,8,1,"a",0,3,"a",1,"a",0,685.700000000012,0,"1a0"
9,21,9,0,"a",2,1,"a",0,"a",2,796,0,"0a2"
9,21,10,2,"a",3,0,"a",2,"a",3,682.48000000001,0,"2a3"
9,21,11,3,"a",0,2,"a",3,"a",0,622.299999999988,0,"3a0"
9,21,12,0,"a",2,3,"a",0,"a",2,1313.82000000001,0,"0a2"
9,21,13,2,"b",2,0,"a",2,"b",2,2425.79999999999,0,"2b2"
9,21,14,2,"a",0,2,"b",2,"a",0,3151.28,0,"2a0"
9,21,15,0,"a",2,2,"a",0,"a",2,5487.07999999999,0,"0a2"
9,21,16,2,"a",0,0,"a",2,"a",0,1296.94,0,"2a0"
9,21,17,0,"a",2,2,"a",0,"a",2,1364.76000000001,0,"0a2"
9,21,18,2,"a",0,0,"a",2,"a",0,907.399999999994,0,"2a0"
9,21,19,0,"b",2,2,"a",0,"b",2,1221.82000000001,0,"0b2"
9,21,20,2,"a",3,0,"b",2,"a",3,3125.95999999999,0,"2a3"
9,21,21,3,"a",1,2,"a",3,"a",1,1590.14000000001,0,"3a1"
9,21,22,1,"a",0,3,"a",1,"a",0,700.200000000012,0,"1a0"
9,21,23,0,"a",2,1,"a",0,"a",2,647.059999999998,0,"0a2"
9,21,24,2,"b",2,0,"a",2,"b",2,1354.70000000001,0,"2b2"
9,21,25,2,"a",0,2,"b",2,"a",0,889.51999999999,0,"2a0"
9,21,26,0,"a",2,2,"a",0,"a",2,603.51999999999,0,"0a2"
9,21,27,2,"a",3,0,"a",2,"a",3,627.540000000008,0,"2a3"
9,21,28,3,"a",0,2,"a",3,"a",0,1010.28,0,"3a0"
9,21,29,0,"a",2,3,"a",0,"a",2,826.739999999991,0,"0a2"
9,21,30,2,"a",0,0,"a",2,"a",0,856.679999999993,0,"2a0"
9,21,31,0,"a",2,2,"a",0,"a",2,993.579999999987,0,"0a2"
9,21,32,2,"a",3,0,"a",2,"a",3,1209.14000000001,0,"2a3"
9,21,33,3,"b",3,2,"a",3,"b",3,1733.57999999999,0,"3b3"
9,21,34,3,"b",3,3,"b",3,"b",3,13852,0,"3b3"
9,21,35,3,"a",1,3,"b",3,"a",1,2036.84,0,"3a1"
9,21,36,1,"b",0,3,"a",1,"b",0,1144.73999999999,0,"1b0"
9,21,37,0,"b",2,1,"b",0,"b",2,2408.34,0,"0b2"
9,21,38,2,"b",2,0,"b",2,"b",2,5266.20000000001,0,"2b2"
9,21,39,2,"a",3,2,"b",2,"a",3,2553.38,0,"2a3"
9,21,40,3,"a",1,2,"a",3,"a",1,933.799999999988,0,"3a1"
9,21,41,1,"b",0,3,"a",1,"b",0,1460.78,0,"1b0"
9,21,42,0,"a",2,1,"b",0,"a",2,4279.78,0,"0a2"
9,21,43,2,"a",0,0,"a",2,"a",0,1824.82000000001,0,"2a0"
9,21,44,0,"b",2,2,"a",0,"b",2,924.01999999999,0,"0b2"
9,21,45,2,"a",0,0,"b",2,"a",0,1399.28000000003,0,"2a0"
10,21,1,0,"b",2,NA,NA,NA,NA,NA,3598.536,0,"0b2"
10,21,2,2,"b",2,0,"b",2,"b",2,4335.04600000037,0,"2b2"
10,21,3,2,"a",0,2,"b",2,"a",0,3349.06500000037,0,"2a0"
10,21,4,0,"a",2,2,"a",0,"a",2,2310.49799999963,0,"0a2"
10,21,5,2,"a",3,0,"a",2,"a",3,2344.976,0,"2a3"
10,21,6,3,"b",3,2,"a",3,"b",3,3417.595,0,"3b3"
10,21,7,3,"b",3,3,"b",3,"b",3,1264.21300000037,0,"3b3"
10,21,8,3,"a",0,3,"b",3,"a",0,885.540999999997,0,"3a0"
10,21,9,0,"a",2,3,"a",0,"a",2,1704.73800000038,0,"0a2"
10,21,10,2,"a",0,0,"a",2,"a",0,883.486000000004,0,"2a0"
10,21,11,0,"a",2,2,"a",0,"a",2,2750.74000000001,0,"0a2"
10,21,12,2,"a",0,0,"a",2,"a",0,983.437000000005,0,"2a0"
10,21,13,0,"b",2,2,"a",0,"b",2,2486.65400000037,0,"0b2"
10,21,14,2,"b",2,0,"b",2,"b",2,3882.08199999963,0,"2b2"
10,21,15,2,"a",3,2,"b",2,"a",3,781.945999999996,0,"2a3"
10,21,16,3,"a",0,2,"a",3,"a",0,1237.97399999962,0,"3a0"
10,21,17,0,"a",2,3,"a",0,"a",2,970.505000000005,0,"0a2"
10,21,18,2,"a",3,0,"a",2,"a",3,1658.484,0,"2a3"
10,21,19,3,"b",3,2,"a",3,"b",3,3654.524,0,"3b3"
10,21,20,3,"b",3,3,"b",3,"b",3,7284.08799999981,0,"3b3"
10,21,21,3,"b",3,3,"b",3,"b",3,798.930999999997,0,"3b3"
10,21,22,3,"a",1,3,"b",3,"a",1,1198.45700000018,0,"3a1"
10,21,23,1,"a",0,3,"a",1,"a",0,5294.38399999963,0,"1a0"
10,21,24,0,"a",2,1,"a",0,"a",2,1577.53299999963,0,"0a2"
10,21,25,2,"a",0,0,"a",2,"a",0,2553.97899999999,0,"2a0"
10,21,26,0,"a",2,2,"a",0,"a",2,1322.10999999964,0,"0a2"
10,21,27,2,"b",2,0,"a",2,"b",2,1748.78799999962,0,"2b2"
10,21,28,2,"a",0,2,"b",2,"a",0,782.092999999615,0,"2a0"
10,21,29,0,"b",2,2,"a",0,"b",2,2508.516,0,"0b2"
10,21,30,2,"a",3,0,"b",2,"a",3,808.101999999635,0,"2a3"
10,21,31,3,"b",3,2,"a",3,"b",3,4015.02700000038,0,"3b3"
10,21,32,3,"a",1,3,"b",3,"a",1,15000.273,0,"3a1"
10,21,33,1,"b",0,3,"a",1,"b",0,2996.44199999963,0,"1b0"
10,21,34,0,"b",2,1,"b",0,"b",2,7835.53299999962,0,"0b2"
10,21,35,2,"a",0,0,"b",2,"a",0,792.4479999998,0,"2a0"
10,21,36,0,"a",2,2,"a",0,"a",2,3711.04000000018,0,"0a2"
10,21,37,2,"a",3,0,"a",2,"a",3,8257.56800000017,0,"2a3"
10,21,38,3,"a",1,2,"a",3,"a",1,1958.78700000019,0,"3a1"
10,21,39,1,"b",0,3,"a",1,"b",0,1399.34999999963,0,"1b0"
10,21,40,0,"a",2,1,"b",0,"a",2,1718.0740000002,0,"0a2"
10,21,41,2,"a",0,0,"a",2,"a",0,3504.88100000037,0,"2a0"
10,21,42,0,"b",2,2,"a",0,"b",2,1930.79199999981,0,"0b2"
10,21,43,2,"a",0,0,"b",2,"a",0,4683.9760000002,0,"2a0"
10,21,44,0,"a",2,2,"a",0,"a",2,1863.78699999963,0,"0a2"
10,21,45,2,"b",2,0,"a",2,"b",2,5828.45200000019,0,"2b2"
11,22,1,1,"b",3,NA,NA,NA,NA,NA,2601.78799998212,0,"1b3"
11,22,2,3,"b",2,1,"b",3,"b",2,1973.21999999404,0,"3b2"
11,22,3,2,"a",2,3,"b",2,"a",2,2427.31100000596,0,"2a2"
11,22,4,2,"a",2,2,"a",2,"a",2,7204.21599998808,0,"2a2"
11,22,5,2,"a",2,2,"a",2,"a",2,1782.851,0,"2a2"
11,22,6,2,"b",1,2,"a",2,"b",1,1163.51799998212,0,"2b1"
11,22,7,1,"a",1,2,"b",1,"a",1,1127.82900000596,0,"1a1"
11,22,8,1,"a",1,1,"a",1,"a",1,1486.02499998212,0,"1a1"
11,22,9,1,"b",1,1,"a",1,"b",1,451.75699998808,0,"1b1"
11,22,10,1,"b",1,1,"b",1,"b",1,1094.60699998809,0,"1b1"
11,22,11,1,"b",1,1,"b",1,"b",1,592.00099998212,0,"1b1"
11,22,12,1,"b",3,1,"b",1,"b",3,684.354999994044,0,"1b3"
11,22,13,3,"b",2,1,"b",3,"b",2,2861.81900000595,0,"3b2"
11,22,14,2,"a",2,3,"b",2,"a",2,518.876999994041,0,"2a2"
11,22,15,2,"a",2,2,"a",2,"a",2,646.774000000005,0,"2a2"
11,22,16,2,"a",2,2,"a",2,"a",2,812.358000005959,0,"2a2"
11,22,17,2,"b",0,2,"a",2,"b",0,265.420999982118,1,"2b0"
11,22,18,0,"b",3,2,"b",0,"b",3,3182.83299999403,0,"0b3"
11,22,19,3,"b",3,0,"b",3,"b",3,1786.70400000596,0,"3b3"
11,22,20,3,"b",3,3,"b",3,"b",3,1449.265,0,"3b3"
11,22,21,3,"b",2,3,"b",3,"b",2,682.406999982122,0,"3b2"
11,22,22,2,"b",1,3,"b",2,"b",1,934.128999994035,0,"2b1"
11,22,23,1,"b",3,2,"b",1,"b",3,951.700999982117,0,"1b3"
11,22,24,3,"b",3,1,"b",3,"b",3,1124.77499998808,0,"3b3"
11,22,25,3,"b",2,3,"b",3,"b",2,1216.99699999404,0,"3b2"
11,22,26,2,"b",1,3,"b",2,"b",1,653.176999988078,0,"2b1"
11,22,27,1,"b",1,2,"b",1,"b",1,538.220000000001,0,"1b1"
11,22,28,1,"b",1,1,"b",1,"b",1,1175.61099998807,0,"1b1"
11,22,29,1,"b",3,1,"b",1,"b",3,582.331999994043,0,"1b3"
11,22,30,3,"a",0,1,"b",3,"a",0,903.422000000006,0,"3a0"
11,22,31,0,"b",3,3,"a",0,"b",3,898.638999982126,0,"0b3"
11,22,32,3,"b",2,0,"b",3,"b",2,331.462,0,"3b2"
11,22,33,2,"b",0,3,"b",2,"b",0,3360.50499999404,0,"2b0"
11,22,34,0,"b",3,2,"b",0,"b",3,1316.01499999403,0,"0b3"
11,22,35,3,"b",3,0,"b",3,"b",3,2124.18400000596,0,"3b3"
11,22,36,3,"b",2,3,"b",3,"b",2,873.240999988077,0,"3b2"
11,22,37,2,"b",1,3,"b",2,"b",1,2294.69699999405,0,"2b1"
11,22,38,1,"b",1,2,"b",1,"b",1,578.430999982113,0,"1b1"
11,22,39,1,"b",1,1,"b",1,"b",1,546.25699998808,0,"1b1"
11,22,40,1,"b",3,1,"b",1,"b",3,248.880999994028,1,"1b3"
11,22,41,3,"b",3,1,"b",3,"b",3,292.07099999403,1,"3b3"
11,22,42,3,"b",2,3,"b",3,"b",2,356.367999988084,0,"3b2"
11,22,43,2,"b",1,3,"b",2,"b",1,446.988000000012,0,"2b1"
11,22,44,1,"b",1,2,"b",1,"b",1,531.626999988075,0,"1b1"
11,22,45,1,"b",1,1,"b",1,"b",1,572.35599998213,0,"1b1"
12,22,1,3,"b",2,NA,NA,NA,NA,NA,1921.83900000596,0,"3b2"
12,22,2,2,"b",1,3,"b",2,"b",1,1101.21500000596,0,"2b1"
12,22,3,1,"b",3,2,"b",1,"b",3,693.433999999994,0,"1b3"
12,22,4,3,"b",3,1,"b",3,"b",3,763.833000008934,0,"3b3"
12,22,5,3,"b",2,3,"b",3,"b",2,515.464000008942,0,"3b2"
12,22,6,2,"b",1,3,"b",2,"b",1,320.5,0,"2b1"
12,22,7,1,"b",1,2,"b",1,"b",1,156.772999997018,1,"1b1"
12,22,8,1,"b",1,1,"b",1,"b",1,143.035000005955,1,"1b1"
12,22,9,1,"b",1,1,"b",1,"b",1,130.645000002987,1,"1b1"
12,22,10,1,"b",3,1,"b",1,"b",3,110.622000002986,1,"1b3"
12,22,11,3,"b",3,1,"b",3,"b",3,677.066000000006,0,"3b3"
12,22,12,3,"b",2,3,"b",3,"b",2,170.532000000007,1,"3b2"
12,22,13,2,"b",0,3,"b",2,"b",0,184.608000008942,1,"2b0"
12,22,14,0,"b",3,2,"b",0,"b",3,748.080000008937,0,"0b3"
12,22,15,3,"a",2,0,"b",3,"a",2,483.878000008946,0,"3a2"
12,22,16,2,"a",2,3,"a",2,"a",2,689.821000002979,0,"2a2"
12,22,17,2,"a",2,2,"a",2,"a",2,704.320000005959,0,"2a2"
12,22,18,2,"a",2,2,"a",2,"a",2,493.452000005957,0,"2a2"
12,22,19,2,"b",1,2,"a",2,"b",1,444.986999997025,0,"2b1"
12,22,20,1,"b",3,2,"b",1,"b",3,541.091000008935,0,"1b3"
12,22,21,3,"b",3,1,"b",3,"b",3,392.993000002985,0,"3b3"
12,22,22,3,"b",2,3,"b",3,"b",2,523.498000005959,0,"3b2"
12,22,23,2,"a",2,3,"b",2,"a",2,808.569000000003,0,"2a2"
12,22,24,2,"a",2,2,"a",2,"a",2,221.498999997013,1,"2a2"
12,22,25,2,"a",2,2,"a",2,"a",2,157.673999999999,1,"2a2"
12,22,26,2,"b",0,2,"a",2,"b",0,360.816999999995,0,"2b0"
12,22,27,0,"b",3,2,"b",0,"b",3,692.856000005966,0,"0b3"
12,22,28,3,"b",2,0,"b",3,"b",2,892.054999997024,0,"3b2"
12,22,29,2,"b",0,3,"b",2,"b",0,1933.55,0,"2b0"
12,22,30,0,"a",3,2,"b",0,"a",3,1050.59600000596,0,"0a3"
12,22,31,3,"a",0,0,"a",3,"a",0,843.021000002977,0,"3a0"
12,22,32,0,"a",3,3,"a",0,"a",3,796.017000005959,0,"0a3"
12,22,33,3,"a",0,0,"a",3,"a",0,695.014000008945,0,"3a0"
12,22,34,0,"a",3,3,"a",0,"a",3,661.613000005964,0,"0a3"
12,22,35,3,"a",2,0,"a",3,"a",2,629.064000002982,0,"3a2"
12,22,36,2,"a",2,3,"a",2,"a",2,710.630999997025,0,"2a2"
12,22,37,2,"b",1,2,"a",2,"b",1,700.762999997023,0,"2b1"
12,22,38,1,"b",1,2,"b",1,"b",1,450.394999997021,0,"1b1"
12,22,39,1,"a",1,1,"b",1,"a",1,850.83200000893,0,"1a1"
12,22,40,1,"b",3,1,"a",1,"b",3,699.527999999991,0,"1b3"
12,22,41,3,"a",2,1,"b",3,"a",2,553.659999997006,0,"3a2"
12,22,42,2,"b",1,3,"a",2,"b",1,340.895000005956,0,"2b1"
12,22,43,1,"a",0,2,"b",1,"a",0,268.801000000007,1,"1a0"
12,22,44,0,"b",3,1,"a",0,"b",3,323.475000002974,0,"0b3"
12,22,45,3,"b",2,0,"b",3,"b",2,825.148000005953,0,"3b2"
13,21,1,3,"b",3,NA,NA,NA,NA,NA,5017.04699990463,0,"3b3"
13,21,2,3,"a",1,3,"b",3,"a",1,2473.317,0,"3a1"
13,21,3,1,"b",0,3,"a",1,"b",0,1588.29799980926,0,"1b0"
13,21,4,0,"a",2,1,"b",0,"a",2,1680.29899990463,0,"0a2"
13,21,5,2,"a",3,0,"a",2,"a",3,1280.83,0,"2a3"
13,21,6,3,"a",0,2,"a",3,"a",0,1162.46800019074,0,"3a0"
13,21,7,0,"b",2,3,"a",0,"b",2,2295.37999980926,0,"0b2"
13,21,8,2,"b",2,0,"b",2,"b",2,2458.837,0,"2b2"
13,21,9,2,"a",0,2,"b",2,"a",0,1551.50700019073,0,"2a0"
13,21,10,0,"a",2,2,"a",0,"a",2,4237.69500019074,0,"0a2"
13,21,11,2,"b",2,0,"a",2,"b",2,2056.75099980927,0,"2b2"
13,21,12,2,"a",0,2,"b",2,"a",0,2004.33399980927,0,"2a0"
13,21,13,0,"a",2,2,"a",0,"a",2,1262.96799980926,0,"0a2"
13,21,14,2,"a",3,0,"a",2,"a",3,2100.17000009537,0,"2a3"
13,21,15,3,"a",0,2,"a",3,"a",0,1496.31700009537,0,"3a0"
13,21,16,0,"b",2,3,"a",0,"b",2,2435.13399990463,0,"0b2"
13,21,17,2,"a",0,0,"b",2,"a",0,1462.58900019074,0,"2a0"
13,21,18,0,"a",2,2,"a",0,"a",2,1212.49499980926,0,"0a2"
13,21,19,2,"a",3,0,"a",2,"a",3,1761.60800019072,0,"2a3"
13,21,20,3,"b",3,2,"a",3,"b",3,4089.81400000001,0,"3b3"
13,21,21,3,"b",3,3,"b",3,"b",3,1238.75599999999,0,"3b3"
13,21,22,3,"b",3,3,"b",3,"b",3,1176.94,0,"3b3"
13,21,23,3,"a",1,3,"b",3,"a",1,1946.28400000001,0,"3a1"
13,21,24,1,"a",0,3,"a",1,"a",0,1507.5,0,"1a0"
13,21,25,0,"a",2,1,"a",0,"a",2,911.499999904627,0,"0a2"
13,21,26,2,"a",0,0,"a",2,"a",0,901.894999904645,0,"2a0"
13,21,27,0,"a",2,2,"a",0,"a",2,3278.45999999999,0,"0a2"
13,21,28,2,"b",2,0,"a",2,"b",2,3914.16399999999,0,"2b2"
13,21,29,2,"a",0,2,"b",2,"a",0,1479.14300019073,0,"2a0"
13,21,30,0,"a",2,2,"a",0,"a",2,1048.01600019072,0,"0a2"
13,21,31,2,"b",2,0,"a",2,"b",2,1606.58600009535,0,"2b2"
13,21,32,2,"a",0,2,"b",2,"a",0,1162.24899990464,0,"2a0"
13,21,33,0,"a",2,2,"a",0,"a",2,2915.96800019074,0,"0a2"
13,21,34,2,"b",2,0,"a",2,"b",2,1677.67299990464,0,"2b2"
13,21,35,2,"a",3,2,"b",2,"a",3,1278.28000009537,0,"2a3"
13,21,36,3,"a",1,2,"a",3,"a",1,1983.92499980927,0,"3a1"
13,21,37,1,"b",0,3,"a",1,"b",0,2454.21899980927,0,"1b0"
13,21,38,0,"a",2,1,"b",0,"a",2,1620.74999990463,0,"0a2"
13,21,39,2,"a",3,0,"a",2,"a",3,1560.592,0,"2a3"
13,21,40,3,"a",1,2,"a",3,"a",1,2946.08499999999,0,"3a1"
13,21,41,1,"b",0,3,"a",1,"b",0,1228.70300000001,0,"1b0"
13,21,42,0,"b",2,1,"b",0,"b",2,1103.27600019073,0,"0b2"
13,21,43,2,"b",2,0,"b",2,"b",2,3555.37700019073,0,"2b2"
13,21,44,2,"a",3,2,"b",2,"a",3,1040.83900019072,0,"2a3"
13,21,45,3,"a",1,2,"a",3,"a",1,1699.04699999999,0,"3a1"
14,21,1,0,"b",2,NA,NA,NA,NA,NA,6617,0,"0b2"
14,21,2,2,"b",2,0,"b",2,"b",2,4154,0,"2b2"
14,21,3,2,"a",0,2,"b",2,"a",0,2661,0,"2a0"
14,21,4,0,"a",2,2,"a",0,"a",2,4282,0,"0a2"
14,21,5,2,"b",2,0,"a",2,"b",2,1799,0,"2b2"
14,21,6,2,"b",2,2,"b",2,"b",2,1004,0,"2b2"
14,21,7,2,"b",2,2,"b",2,"b",2,718,0,"2b2"
14,21,8,2,"a",0,2,"b",2,"a",0,2132,0,"2a0"
14,21,9,0,"a",2,2,"a",0,"a",2,1377,0,"0a2"
14,21,10,2,"a",3,0,"a",2,"a",3,2783,0,"2a3"
14,21,11,3,"a",0,2,"a",3,"a",0,4885,0,"3a0"
14,21,12,0,"a",2,3,"a",0,"a",2,3381,0,"0a2"
14,21,13,2,"a",3,0,"a",2,"a",3,1723,0,"2a3"
14,21,14,3,"a",1,2,"a",3,"a",1,1623,0,"3a1"
14,21,15,1,"a",0,3,"a",1,"a",0,2083,0,"1a0"
14,21,16,0,"a",2,1,"a",0,"a",2,1907,0,"0a2"
14,21,17,2,"a",0,0,"a",2,"a",0,1551,0,"2a0"
14,21,18,0,"a",2,2,"a",0,"a",2,1600.00000000003,0,"0a2"
14,21,19,2,"a",0,0,"a",2,"a",0,1902,0,"2a0"
14,21,20,0,"a",2,2,"a",0,"a",2,1372,0,"0a2"
14,21,21,2,"a",3,0,"a",2,"a",3,1345,0,"2a3"
14,21,22,3,"a",0,2,"a",3,"a",0,1639.00000000003,0,"3a0"
14,21,23,0,"a",2,3,"a",0,"a",2,1728,0,"0a2"
14,21,24,2,"b",2,0,"a",2,"b",2,1502,0,"2b2"
14,21,25,2,"b",2,2,"b",2,"b",2,1391,0,"2b2"
14,21,26,2,"b",2,2,"b",2,"b",2,1444,0,"2b2"
14,21,27,2,"a",0,2,"b",2,"a",0,668,0,"2a0"
14,21,28,0,"a",2,2,"a",0,"a",2,5408,0,"0a2"
14,21,29,2,"a",0,0,"a",2,"a",0,2487,0,"2a0"
14,21,30,0,"a",2,2,"a",0,"a",2,906.000000000029,0,"0a2"
14,21,31,2,"a",3,0,"a",2,"a",3,1462,0,"2a3"
14,21,32,3,"a",1,2,"a",3,"a",1,1450,0,"3a1"
14,21,33,1,"a",0,3,"a",1,"a",0,1836,0,"1a0"
14,21,34,0,"a",2,1,"a",0,"a",2,1203.00000000003,0,"0a2"
14,21,35,2,"a",0,0,"a",2,"a",0,2386,0,"2a0"
14,21,36,0,"a",2,2,"a",0,"a",2,1610.00000000003,0,"0a2"
14,21,37,2,"a",3,0,"a",2,"a",3,1331.00000000003,0,"2a3"
14,21,38,3,"a",1,2,"a",3,"a",1,1265.00000000003,0,"3a1"
14,21,39,1,"a",0,3,"a",1,"a",0,4365,0,"1a0"
14,21,40,0,"a",2,1,"a",0,"a",2,1616,0,"0a2"
14,21,41,2,"a",3,0,"a",2,"a",3,1166,0,"2a3"
14,21,42,3,"a",1,2,"a",3,"a",1,1299,0,"3a1"
14,21,43,1,"a",0,3,"a",1,"a",0,920,0,"1a0"
14,21,44,0,"a",2,1,"a",0,"a",2,1689,0,"0a2"
14,21,45,2,"b",2,0,"a",2,"b",2,2606,0,"2b2"
15,22,1,2,"b",1,NA,NA,NA,NA,NA,4038.79999999999,0,"2b1"
15,22,2,1,"b",1,2,"b",1,"b",1,2199.44,0,"1b1"
15,22,3,1,"b",1,1,"b",1,"b",1,884.059999999998,0,"1b1"
15,22,4,1,"a",1,1,"b",1,"a",1,723.359999999986,0,"1a1"
15,22,5,1,"a",0,1,"a",1,"a",0,658.760000000009,0,"1a0"
15,22,6,0,"a",3,1,"a",0,"a",3,2339.34000000003,0,"0a3"
15,22,7,3,"a",2,0,"a",3,"a",2,428.419999999984,0,"3a2"
15,22,8,2,"a",2,3,"a",2,"a",2,430.559999999998,0,"2a2"
15,22,9,2,"a",2,2,"a",2,"a",2,331,0,"2a2"
15,22,10,2,"a",2,2,"a",2,"a",2,323.880000000005,0,"2a2"
15,22,11,2,"a",2,2,"a",2,"a",2,324.659999999974,0,"2a2"
15,22,12,2,"a",2,2,"a",2,"a",2,137.239999999991,1,"2a2"
15,22,13,2,"a",2,2,"a",2,"a",2,115.960000000021,1,"2a2"
15,22,14,2,"a",2,2,"a",2,"a",2,28.679999999993,1,"2a2"
15,22,15,2,"b",0,2,"a",2,"b",0,180.799999999988,1,"2b0"
15,22,16,0,"b",3,2,"b",0,"b",3,581.440000000002,0,"0b3"
15,22,17,3,"a",0,0,"b",3,"a",0,749.340000000026,0,"3a0"
15,22,18,0,"b",3,3,"a",0,"b",3,560.200000000012,0,"0b3"
15,22,19,3,"b",2,0,"b",3,"b",2,435.880000000005,0,"3b2"
15,22,20,2,"b",1,3,"b",2,"b",1,382.119999999995,0,"2b1"
15,22,21,1,"b",3,2,"b",1,"b",3,339.419999999984,0,"1b3"
15,22,22,3,"b",2,1,"b",3,"b",2,307.940000000002,0,"3b2"
15,22,23,2,"b",1,3,"b",2,"b",1,332.5,0,"2b1"
15,22,24,1,"b",1,2,"b",1,"b",1,323.380000000005,0,"1b1"
15,22,25,1,"b",3,1,"b",1,"b",3,331.260000000009,0,"1b3"
15,22,26,3,"b",2,1,"b",3,"b",2,746.119999999995,0,"3b2"
15,22,27,2,"b",0,3,"b",2,"b",0,545.659999999974,0,"2b0"
15,22,28,0,"b",3,2,"b",0,"b",3,149.679999999993,1,"0b3"
15,22,29,3,"b",3,0,"b",3,"b",3,91.039999999979,1,"3b3"
15,22,30,3,"b",3,3,"b",3,"b",3,1222.64000000001,0,"3b3"
15,22,31,3,"b",2,3,"b",3,"b",2,421.780000000028,0,"3b2"
15,22,32,2,"b",1,3,"b",2,"b",1,267.559999999998,1,"2b1"
15,22,33,1,"b",3,2,"b",1,"b",3,311.140000000014,0,"1b3"
15,22,34,3,"b",3,1,"b",3,"b",3,740.539999999979,0,"3b3"
15,22,35,3,"a",2,3,"b",3,"a",2,423.419999999984,0,"3a2"
15,22,36,2,"a",2,3,"a",2,"a",2,269.200000000012,1,"2a2"
15,22,37,2,"a",2,2,"a",2,"a",2,171.799999999988,1,"2a2"
15,22,38,2,"a",2,2,"a",2,"a",2,1072.59999999998,0,"2a2"
15,22,39,2,"b",0,2,"a",2,"b",0,375.859999999986,0,"2b0"
15,22,40,0,"a",3,2,"b",0,"a",3,456.719999999972,0,"0a3"
15,22,41,3,"a",0,0,"a",3,"a",0,339.479999999981,0,"3a0"
15,22,42,0,"a",3,3,"a",0,"a",3,325.020000000019,0,"0a3"
15,22,43,3,"a",2,0,"a",3,"a",2,314.919999999984,0,"3a2"
15,22,44,2,"a",2,3,"a",2,"a",2,324.460000000021,0,"2a2"
15,22,45,2,"a",2,2,"a",2,"a",2,254.340000000026,1,"2a2"
16,22,1,2,"a",2,NA,NA,NA,NA,NA,2401.036,0,"2a2"
16,22,2,2,"a",2,2,"a",2,"a",2,447.243000000002,0,"2a2"
16,22,3,2,"a",2,2,"a",2,"a",2,388.280000000748,0,"2a2"
16,22,4,2,"b",1,2,"a",2,"b",1,638.899000000747,0,"2b1"
16,22,5,1,"a",1,2,"b",1,"a",1,2215.466,0,"1a1"
16,22,6,1,"a",0,1,"a",1,"a",0,1001.83600000298,0,"1a0"
16,22,7,0,"a",3,1,"a",0,"a",3,2031.57400000298,0,"0a3"
16,22,8,3,"a",2,0,"a",3,"a",2,608.173000000745,0,"3a2"
16,22,9,2,"a",2,3,"a",2,"a",2,1262.33500000149,0,"2a2"
16,22,10,2,"b",1,2,"a",2,"b",1,1274.02200000298,0,"2b1"
16,22,11,1,"b",1,2,"b",1,"b",1,2984.227,0,"1b1"
16,22,12,1,"b",1,1,"b",1,"b",1,2988.28400000298,0,"1b1"
16,22,13,1,"b",1,1,"b",1,"b",1,1314.21800000075,0,"1b1"
16,22,14,1,"b",3,1,"b",1,"b",3,675.543000002232,0,"1b3"
16,22,15,3,"b",2,1,"b",3,"b",2,817.194000002986,0,"3b2"
16,22,16,2,"b",1,3,"b",2,"b",1,2636.037,0,"2b1"
16,22,17,1,"b",3,2,"b",1,"b",3,1269.03500000299,0,"1b3"
16,22,18,3,"b",3,1,"b",3,"b",3,740.405000001483,0,"3b3"
16,22,19,3,"b",2,3,"b",3,"b",2,1062.46300000223,0,"3b2"
16,22,20,2,"b",0,3,"b",2,"b",0,2985.56300000224,0,"2b0"
16,22,21,0,"b",3,2,"b",0,"b",3,2678.43300000297,0,"0b3"
16,22,22,3,"b",3,0,"b",3,"b",3,1021.22900000149,0,"3b3"
16,22,23,3,"b",2,3,"b",3,"b",2,934.148000002984,0,"3b2"
16,22,24,2,"b",0,3,"b",2,"b",0,1006.65400000224,0,"2b0"
16,22,25,0,"a",3,2,"b",0,"a",3,2899.19600000074,0,"0a3"
16,22,26,3,"a",2,0,"a",3,"a",2,662.138000000006,0,"3a2"
16,22,27,2,"a",2,3,"a",2,"a",2,778.325000001496,0,"2a2"
16,22,28,2,"b",1,2,"a",2,"b",1,3967.60800000298,0,"2b1"
16,22,29,1,"b",1,2,"b",1,"b",1,728.659000000742,0,"1b1"
16,22,30,1,"b",1,1,"b",1,"b",1,865.637000001487,0,"1b1"
16,22,31,1,"b",3,1,"b",1,"b",3,1081.00200000223,0,"1b3"
16,22,32,3,"b",3,1,"b",3,"b",3,3140.32400000298,0,"3b3"
16,22,33,3,"b",2,3,"b",3,"b",2,1296.01800000224,0,"3b2"
16,22,34,2,"b",0,3,"b",2,"b",0,1110.29000000223,0,"2b0"
16,22,35,0,"b",3,2,"b",0,"b",3,789.303000002241,0,"0b3"
16,22,36,3,"b",3,0,"b",3,"b",3,2386.12200000075,0,"3b3"
16,22,37,3,"b",2,3,"b",3,"b",2,2262.715,0,"3b2"
16,22,38,2,"b",1,3,"b",2,"b",1,2374.53800000076,0,"2b1"
16,22,39,1,"b",1,2,"b",1,"b",1,873.10500000001,0,"1b1"
16,22,40,1,"b",3,1,"b",1,"b",3,1105.73800000298,0,"1b3"
16,22,41,3,"b",2,1,"b",3,"b",2,2772.087,0,"3b2"
16,22,42,2,"b",1,3,"b",2,"b",1,918.517000001477,0,"2b1"
16,22,43,1,"b",1,2,"b",1,"b",1,259.664000001503,1,"1b1"
16,22,44,1,"b",1,1,"b",1,"b",1,507.76700000299,0,"1b1"
16,22,45,1,"b",3,1,"b",1,"b",3,321.075000001496,0,"1b3"
17,22,1,3,"a",2,NA,NA,NA,NA,NA,1932.92,0,"3a2"
17,22,2,2,"b",0,3,"a",2,"b",0,1116.22,0,"2b0"
17,22,3,0,"b",3,2,"b",0,"b",3,1173.06,0,"0b3"
17,22,4,3,"a",2,0,"b",3,"a",2,909.119999999995,0,"3a2"
17,22,5,2,"b",1,3,"a",2,"b",1,2420.8,0,"2b1"
17,22,6,1,"a",0,2,"b",1,"a",0,1651.84,0,"1a0"
17,22,7,0,"b",3,1,"a",0,"b",3,1221.22,0,"0b3"
17,22,8,3,"a",2,0,"b",3,"a",2,1025.22,0,"3a2"
17,22,9,2,"a",2,3,"a",2,"a",2,1407.84,0,"2a2"
17,22,10,2,"a",2,2,"a",2,"a",2,2259.38,0,"2a2"
17,22,11,2,"b",1,2,"a",2,"b",1,1169.78,0,"2b1"
17,22,12,1,"b",3,2,"b",1,"b",3,1067.28,0,"1b3"
17,22,13,3,"b",2,1,"b",3,"b",2,1290.06,0,"3b2"
17,22,14,2,"b",0,3,"b",2,"b",0,945.639999999999,0,"2b0"
17,22,15,0,"b",3,2,"b",0,"b",3,750.619999999995,0,"0b3"
17,22,16,3,"a",0,0,"b",3,"a",0,1120.82000000001,0,"3a0"
17,22,17,0,"a",3,3,"a",0,"a",3,631.059999999998,0,"0a3"
17,22,18,3,"a",0,0,"a",3,"a",0,1633.32000000001,0,"3a0"
17,22,19,0,"a",3,3,"a",0,"a",3,748.740000000005,0,"0a3"
17,22,20,3,"a",2,0,"a",3,"a",2,562.880000000005,0,"3a2"
17,22,21,2,"a",2,3,"a",2,"a",2,1027.82000000001,0,"2a2"
17,22,22,2,"b",1,2,"a",2,"b",1,809.239999999991,0,"2b1"
17,22,23,1,"a",1,2,"b",1,"a",1,862.140000000014,0,"1a1"
17,22,24,1,"b",1,1,"a",1,"b",1,444.420000000013,0,"1b1"
17,22,25,1,"a",0,1,"b",1,"a",0,378.239999999991,0,"1a0"
17,22,26,0,"b",3,1,"a",0,"b",3,295.559999999998,1,"0b3"
17,22,27,3,"b",3,0,"b",3,"b",3,9821.16,0,"3b3"
17,22,28,3,"b",3,3,"b",3,"b",3,512.140000000014,0,"3b3"
17,22,29,3,"b",2,3,"b",3,"b",2,463.619999999995,0,"3b2"
17,22,30,2,"b",0,3,"b",2,"b",0,1665.64000000001,0,"2b0"
17,22,31,0,"a",3,2,"b",0,"a",3,486.160000000003,0,"0a3"
17,22,32,3,"a",0,0,"a",3,"a",0,3201.45999999999,0,"3a0"
17,22,33,0,"a",3,3,"a",0,"a",3,426.540000000008,0,"0a3"
17,22,34,3,"a",2,0,"a",3,"a",2,405.220000000001,0,"3a2"
17,22,35,2,"a",2,3,"a",2,"a",2,938.880000000005,0,"2a2"
17,22,36,2,"a",2,2,"a",2,"a",2,754.640000000014,0,"2a2"
17,22,37,2,"a",2,2,"a",2,"a",2,8682.01999999999,0,"2a2"
17,22,38,2,"a",2,2,"a",2,"a",2,1543.92000000001,0,"2a2"
17,22,39,2,"a",2,2,"a",2,"a",2,2851.64000000001,0,"2a2"
17,22,40,2,"b",1,2,"a",2,"b",1,406.820000000007,0,"2b1"
17,22,41,1,"b",3,2,"b",1,"b",3,397.279999999999,0,"1b3"
17,22,42,3,"b",2,1,"b",3,"b",2,124.760000000009,1,"3b2"
17,22,43,2,"a",2,3,"b",2,"a",2,284.01999999999,1,"2a2"
17,22,44,2,"a",2,2,"a",2,"a",2,954.559999999998,0,"2a2"
17,22,45,2,"a",2,2,"a",2,"a",2,743.540000000008,0,"2a2"
18,22,1,2,"a",2,NA,NA,NA,NA,NA,3319.65699990463,0,"2a2"
18,22,2,2,"b",1,2,"a",2,"b",1,1904.14699995233,0,"2b1"
18,22,3,1,"b",3,2,"b",1,"b",3,1197.65699990463,0,"1b3"
18,22,4,3,"b",3,1,"b",3,"b",3,1596.52299995231,0,"3b3"
18,22,5,3,"b",3,3,"b",3,"b",3,931.815999976156,0,"3b3"
18,22,6,3,"a",2,3,"b",3,"a",2,811.306999928463,0,"3a2"
18,22,7,2,"a",2,3,"a",2,"a",2,1734.36299990464,0,"2a2"
18,22,8,2,"a",2,2,"a",2,"a",2,554.363999904628,0,"2a2"
18,22,9,2,"a",2,2,"a",2,"a",2,420.639999976149,0,"2a2"
18,22,10,2,"a",2,2,"a",2,"a",2,391.542999904632,0,"2a2"
18,22,11,2,"a",2,2,"a",2,"a",2,352.346999952308,0,"2a2"
18,22,12,2,"a",2,2,"a",2,"a",2,384.194999976171,0,"2a2"
18,22,13,2,"b",1,2,"a",2,"b",1,830.252000000008,0,"2b1"
18,22,14,1,"b",1,2,"b",1,"b",1,730.076999928482,0,"1b1"
18,22,15,1,"b",3,1,"b",1,"b",3,793.49399997617,0,"1b3"
18,22,16,3,"b",2,1,"b",3,"b",2,522.712999904645,0,"3b2"
18,22,17,2,"b",0,3,"b",2,"b",0,204.042999928468,1,"2b0"
18,22,18,0,"b",3,2,"b",0,"b",3,6316.21299999999,0,"0b3"
18,22,19,3,"b",2,0,"b",3,"b",2,1399.84999997617,0,"3b2"
18,22,20,2,"b",0,3,"b",2,"b",0,553.432999904646,0,"2b0"
18,22,21,0,"b",3,2,"b",0,"b",3,678.060999999987,0,"0b3"
18,22,22,3,"b",2,0,"b",3,"b",2,1220.041,0,"3b2"
18,22,23,2,"b",1,3,"b",2,"b",1,511.594000000012,0,"2b1"
18,22,24,1,"b",1,2,"b",1,"b",1,1952.74799997616,0,"1b1"
18,22,25,1,"b",1,1,"b",1,"b",1,629.308999976172,0,"1b1"
18,22,26,1,"b",1,1,"b",1,"b",1,961.497999928484,0,"1b1"
18,22,27,1,"b",3,1,"b",1,"b",3,1381.23899995233,0,"1b3"
18,22,28,3,"b",2,1,"b",3,"b",2,1178.47899999999,0,"3b2"
18,22,29,2,"b",1,3,"b",2,"b",1,1490.95699995232,0,"2b1"
18,22,30,1,"b",1,2,"b",1,"b",1,3092.36399990463,0,"1b1"
18,22,31,1,"b",3,1,"b",1,"b",3,942.054999952321,0,"1b3"
18,22,32,3,"a",2,1,"b",3,"a",2,470.061999976169,0,"3a2"
18,22,33,2,"a",2,3,"a",2,"a",2,302.349999952305,0,"2a2"
18,22,34,2,"a",2,2,"a",2,"a",2,331.245999976149,0,"2a2"
18,22,35,2,"a",2,2,"a",2,"a",2,230.79499990464,1,"2a2"
18,22,36,2,"b",1,2,"a",2,"b",1,299.921999952319,1,"2b1"
18,22,37,1,"b",1,2,"b",1,"b",1,492.936999976169,0,"1b1"
18,22,38,1,"b",3,1,"b",1,"b",3,683.579999976151,0,"1b3"
18,22,39,3,"b",3,1,"b",3,"b",3,580.096999952337,0,"3b3"
18,22,40,3,"b",2,3,"b",3,"b",2,502.545999952301,0,"3b2"
18,22,41,2,"b",0,3,"b",2,"b",0,1224.53399997618,0,"2b0"
18,22,42,0,"b",3,2,"b",0,"b",3,507.194999976142,0,"0b3"
18,22,43,3,"b",3,0,"b",3,"b",3,4879.99299992848,0,"3b3"
18,22,44,3,"b",2,3,"b",3,"b",2,756.76799995231,0,"3b2"
18,22,45,2,"b",1,3,"b",2,"b",1,842.829999952344,0,"2b1"
20,22,1,1,"a",0,NA,NA,NA,NA,NA,22019,0,"1a0"
20,22,2,0,"a",3,1,"a",0,"a",3,8957,0,"0a3"
20,22,3,3,"a",2,0,"a",3,"a",2,11931,0,"3a2"
20,22,4,2,"a",2,3,"a",2,"a",2,4070,0,"2a2"
20,22,5,2,"a",2,2,"a",2,"a",2,7216,0,"2a2"
20,22,6,2,"b",1,2,"a",2,"b",1,3491,0,"2b1"
20,22,7,1,"b",1,2,"b",1,"b",1,8672,0,"1b1"
20,22,8,1,"b",3,1,"b",1,"b",3,6970,0,"1b3"
20,22,9,3,"b",3,1,"b",3,"b",3,14017,0,"3b3"
20,22,10,3,"b",2,3,"b",3,"b",2,8258,0,"3b2"
20,22,11,2,"b",0,3,"b",2,"b",0,8251,0,"2b0"
20,22,12,0,"a",3,2,"b",0,"a",3,4285,0,"0a3"
20,22,13,3,"a",2,0,"a",3,"a",2,1818,0,"3a2"
20,22,14,2,"a",2,3,"a",2,"a",2,1814,0,"2a2"
20,22,15,2,"b",0,2,"a",2,"b",0,8179,0,"2b0"
20,22,16,0,"a",3,2,"b",0,"a",3,727,0,"0a3"
20,22,17,3,"a",2,0,"a",3,"a",2,316,0,"3a2"
20,22,18,2,"a",2,3,"a",2,"a",2,93,1,"2a2"
20,22,19,2,"b",1,2,"a",2,"b",1,596,0,"2b1"
20,22,20,1,"b",1,2,"b",1,"b",1,550,0,"1b1"
20,22,21,1,"b",3,1,"b",1,"b",3,425,0,"1b3"
20,22,22,3,"b",3,1,"b",3,"b",3,280,1,"3b3"
20,22,23,3,"b",2,3,"b",3,"b",2,2831,0,"3b2"
20,22,24,2,"b",1,3,"b",2,"b",1,456,0,"2b1"
20,22,25,1,"a",1,2,"b",1,"a",1,971,0,"1a1"
20,22,26,1,"a",1,1,"a",1,"a",1,978,0,"1a1"
20,22,27,1,"a",0,1,"a",1,"a",0,2100,0,"1a0"
20,22,28,0,"a",3,1,"a",0,"a",3,2931,0,"0a3"
20,22,29,3,"b",2,0,"a",3,"b",2,987,0,"3b2"
20,22,30,2,"a",2,3,"b",2,"a",2,293,1,"2a2"
20,22,31,2,"b",0,2,"a",2,"b",0,1531,0,"2b0"
20,22,32,0,"b",3,2,"b",0,"b",3,3374,0,"0b3"
20,22,33,3,"b",3,0,"b",3,"b",3,511,0,"3b3"
20,22,34,3,"b",2,3,"b",3,"b",2,1725,0,"3b2"
20,22,35,2,"b",1,3,"b",2,"b",1,592,0,"2b1"
20,22,36,1,"a",1,2,"b",1,"a",1,604,0,"1a1"
20,22,37,1,"b",1,1,"a",1,"b",1,647,0,"1b1"
20,22,38,1,"a",0,1,"b",1,"a",0,1214,0,"1a0"
20,22,39,0,"b",3,1,"a",0,"b",3,770,0,"0b3"
20,22,40,3,"a",0,0,"b",3,"a",0,14953,0,"3a0"
20,22,41,0,"b",3,3,"a",0,"b",3,4446,0,"0b3"
20,22,42,3,"a",0,0,"b",3,"a",0,1017,0,"3a0"
20,22,43,0,"a",3,3,"a",0,"a",3,604,0,"0a3"
20,22,44,3,"b",2,0,"a",3,"b",2,775,0,"3b2"
20,22,45,2,"b",1,3,"b",2,"b",1,156,1,"2b1"
21,21,1,3,"a",0,NA,NA,NA,NA,NA,8042.67999999999,0,"3a0"
21,21,2,0,"b",2,3,"a",0,"b",2,2965.29999999999,0,"0b2"
21,21,3,2,"a",0,0,"b",2,"a",0,2008.42000000001,0,"2a0"
21,21,4,0,"a",2,2,"a",0,"a",2,1326.44,0,"0a2"
21,21,5,2,"a",0,0,"a",2,"a",0,2725.76000000001,0,"2a0"
21,21,6,0,"b",2,2,"a",0,"b",2,1506.78,0,"0b2"
21,21,7,2,"b",2,0,"b",2,"b",2,1128.78,0,"2b2"
21,21,8,2,"b",2,2,"b",2,"b",2,961.119999999995,0,"2b2"
21,21,9,2,"b",2,2,"b",2,"b",2,648.079999999987,0,"2b2"
21,21,10,2,"b",2,2,"b",2,"b",2,543.799999999988,0,"2b2"
21,21,11,2,"b",2,2,"b",2,"b",2,804.440000000002,0,"2b2"
21,21,12,2,"b",2,2,"b",2,"b",2,469.440000000002,0,"2b2"
21,21,13,2,"a",3,2,"b",2,"a",3,546.799999999988,0,"2a3"
21,21,14,3,"a",1,2,"a",3,"a",1,634.48000000001,0,"3a1"
21,21,15,1,"a",0,3,"a",1,"a",0,754.51999999999,0,"1a0"
21,21,16,0,"a",2,1,"a",0,"a",2,818.799999999988,0,"0a2"
21,21,17,2,"a",0,0,"a",2,"a",0,483.779999999999,0,"2a0"
21,21,18,0,"a",2,2,"a",0,"a",2,529.48000000001,0,"0a2"
21,21,19,2,"a",3,0,"a",2,"a",3,525.820000000007,0,"2a3"
21,21,20,3,"a",1,2,"a",3,"a",1,1396.07999999999,0,"3a1"
21,21,21,1,"a",0,3,"a",1,"a",0,947.799999999988,0,"1a0"
21,21,22,0,"a",2,1,"a",0,"a",2,870.420000000013,0,"0a2"
21,21,23,2,"a",3,0,"a",2,"a",3,1844.45999999999,0,"2a3"
21,21,24,3,"a",1,2,"a",3,"a",1,1540.14000000001,0,"3a1"
21,21,25,1,"a",0,3,"a",1,"a",0,612.799999999988,0,"1a0"
21,21,26,0,"a",2,1,"a",0,"a",2,962.779999999999,0,"0a2"
21,21,27,2,"a",0,0,"a",2,"a",0,572.779999999999,0,"2a0"
21,21,28,0,"a",2,2,"a",0,"a",2,1627.14000000001,0,"0a2"
21,21,29,2,"a",0,0,"a",2,"a",0,648.459999999992,0,"2a0"
21,21,30,0,"a",2,2,"a",0,"a",2,1573.14000000001,0,"0a2"
21,21,31,2,"b",2,0,"a",2,"b",2,1270.5,0,"2b2"
21,21,32,2,"b",2,2,"b",2,"b",2,485.5,0,"2b2"
21,21,33,2,"b",2,2,"b",2,"b",2,108.799999999988,1,"2b2"
21,21,34,2,"b",2,2,"b",2,"b",2,115.799999999988,1,"2b2"
21,21,35,2,"a",0,2,"b",2,"a",0,731.820000000007,0,"2a0"
21,21,36,0,"a",2,2,"a",0,"a",2,543.119999999995,0,"0a2"
21,21,37,2,"a",3,0,"a",2,"a",3,787.779999999999,0,"2a3"
21,21,38,3,"a",0,2,"a",3,"a",0,627.179999999993,0,"3a0"
21,21,39,0,"a",2,3,"a",0,"a",2,539.459999999992,0,"0a2"
21,21,40,2,"a",0,0,"a",2,"a",0,268.779999999999,1,"2a0"
21,21,41,0,"a",2,2,"a",0,"a",2,718.820000000007,0,"0a2"
21,21,42,2,"a",3,0,"a",2,"a",3,718.859999999986,0,"2a3"
21,21,43,3,"a",1,2,"a",3,"a",1,859.839999999997,0,"3a1"
21,21,44,1,"a",0,3,"a",1,"a",0,817.820000000007,0,"1a0"
21,21,45,0,"a",2,1,"a",0,"a",2,655.179999999993,0,"0a2"
22,21,1,2,"b",2,NA,NA,NA,NA,NA,1567.51400000224,0,"2b2"
22,21,2,2,"b",2,2,"b",2,"b",2,1195.49600000223,0,"2b2"
22,21,3,2,"a",3,2,"b",2,"a",3,1017.52100000225,0,"2a3"
22,21,4,3,"b",3,2,"a",3,"b",3,804.125000000757,0,"3b3"
22,21,5,3,"a",1,3,"b",3,"a",1,1251.46900000074,0,"3a1"
22,21,6,1,"a",0,3,"a",1,"a",0,836.822000000742,0,"1a0"
22,21,7,0,"a",2,1,"a",0,"a",2,1094.83700000076,0,"0a2"
22,21,8,2,"a",0,0,"a",2,"a",0,874.281000002229,0,"2a0"
22,21,9,0,"a",2,2,"a",0,"a",2,3270.86700000076,0,"0a2"
22,21,10,2,"a",0,0,"a",2,"a",0,1619.65100000222,0,"2a0"
22,21,11,0,"b",2,2,"a",0,"b",2,1026.23700000075,0,"0b2"
22,21,12,2,"b",2,0,"b",2,"b",2,1624.90300000075,0,"2b2"
22,21,13,2,"b",2,2,"b",2,"b",2,1023.60100000075,0,"2b2"
22,21,14,2,"a",0,2,"b",2,"a",0,1166.37300000223,0,"2a0"
22,21,15,0,"b",2,2,"a",0,"b",2,1223.06600000223,0,"0b2"
22,21,16,2,"b",2,0,"b",2,"b",2,1357.74700000224,0,"2b2"
22,21,17,2,"b",2,2,"b",2,"b",2,671.094000002253,0,"2b2"
22,21,18,2,"a",3,2,"b",2,"a",3,851.976000001479,0,"2a3"
22,21,19,3,"a",1,2,"a",3,"a",1,953.122000002244,0,"3a1"
22,21,20,1,"b",0,3,"a",1,"b",0,1002.36400000076,0,"1b0"
22,21,21,0,"b",2,1,"b",0,"b",2,697.712000000756,0,"0b2"
22,21,22,2,"b",2,0,"b",2,"b",2,2501.17100000224,0,"2b2"
22,21,23,2,"a",3,2,"b",2,"a",3,536.517000002263,0,"2a3"
22,21,24,3,"a",0,2,"a",3,"a",0,650.532000002218,0,"3a0"
22,21,25,0,"a",2,3,"a",0,"a",2,671.883000002243,0,"0a2"
22,21,26,2,"a",0,0,"a",2,"a",0,812.451000000758,0,"2a0"
22,21,27,0,"a",2,2,"a",0,"a",2,1451.4360000015,0,"0a2"
22,21,28,2,"a",3,0,"a",2,"a",3,904.488000000769,0,"2a3"
22,21,29,3,"a",0,2,"a",3,"a",0,1411.90700000222,0,"3a0"
22,21,30,0,"b",2,3,"a",0,"b",2,602.61600000225,0,"0b2"
22,21,31,2,"a",0,0,"b",2,"a",0,513.858000000764,0,"2a0"
22,21,32,0,"b",2,2,"a",0,"b",2,940.532000000763,0,"0b2"
22,21,33,2,"a",0,0,"b",2,"a",0,790.551000000734,0,"2a0"
22,21,34,0,"a",2,2,"a",0,"a",2,630.557000000728,0,"0a2"
22,21,35,2,"b",2,0,"a",2,"b",2,532.574000000721,0,"2b2"
22,21,36,2,"b",2,2,"b",2,"b",2,542.590000000724,0,"2b2"
22,21,37,2,"a",3,2,"b",2,"a",3,784.691000002262,0,"2a3"
22,21,38,3,"a",1,2,"a",3,"a",1,2160.61700000073,0,"3a1"
22,21,39,1,"b",0,3,"a",1,"b",0,14999.894,0,"1b0"
22,21,40,0,"a",2,1,"b",0,"a",2,3258.52600000077,0,"0a2"
22,21,41,2,"a",0,0,"a",2,"a",0,352.091000000015,0,"2a0"
22,21,42,0,"a",2,2,"a",0,"a",2,1665.23800000077,0,"0a2"
22,21,43,2,"a",0,0,"a",2,"a",0,302.022999999986,0,"2a0"
22,21,44,0,"a",2,2,"a",0,"a",2,425.264000000723,0,"0a2"
22,21,45,2,"a",3,0,"a",2,"a",3,415.941000000748,0,"2a3"
23,21,1,0,"b",2,NA,NA,NA,NA,NA,2119.01600001192,0,"0b2"
23,21,2,2,"b",2,0,"b",2,"b",2,1306.38600001788,0,"2b2"
23,21,3,2,"a",3,2,"b",2,"a",3,2360.55400000596,0,"2a3"
23,21,4,3,"a",0,2,"a",3,"a",0,1202.128,0,"3a0"
23,21,5,0,"b",2,3,"a",0,"b",2,1731.75000001788,0,"0b2"
23,21,6,2,"b",2,0,"b",2,"b",2,1072.16,0,"2b2"
23,21,7,2,"a",0,2,"b",2,"a",0,1232.311,0,"2a0"
23,21,8,0,"b",2,2,"a",0,"b",2,837.601000017879,0,"0b2"
23,21,9,2,"a",0,0,"b",2,"a",0,2706.10900001191,0,"2a0"
23,21,10,0,"a",2,2,"a",0,"a",2,2652.32500001788,0,"0a2"
23,21,11,2,"a",0,0,"a",2,"a",0,3976.70299999404,0,"2a0"
23,21,12,0,"b",2,2,"a",0,"b",2,1690.50300001788,0,"0b2"
23,21,13,2,"b",2,0,"b",2,"b",2,1600.745,0,"2b2"
23,21,14,2,"b",2,2,"b",2,"b",2,750.170000005965,0,"2b2"
23,21,15,2,"b",2,2,"b",2,"b",2,895.273999994039,0,"2b2"
23,21,16,2,"a",3,2,"b",2,"a",3,769.384000011923,0,"2a3"
23,21,17,3,"b",3,2,"a",3,"b",3,1181.62200001192,0,"3b3"
23,21,18,3,"a",1,3,"b",3,"a",1,3477.91,0,"3a1"
23,21,19,1,"b",0,3,"a",1,"b",0,4927.77800001192,0,"1b0"
23,21,20,0,"a",2,1,"b",0,"a",2,2318.216,0,"0a2"
23,21,21,2,"b",2,0,"a",2,"b",2,1569.516,0,"2b2"
23,21,22,2,"a",0,2,"b",2,"a",0,2001.69900001788,0,"2a0"
23,21,23,0,"b",2,2,"a",0,"b",2,14999.4,0,"0b2"
23,21,24,2,"a",3,0,"b",2,"a",3,2416.38800001191,0,"2a3"
23,21,25,3,"b",3,2,"a",3,"b",3,1681.29200000595,0,"3b3"
23,21,26,3,"b",3,3,"b",3,"b",3,918.690000017872,0,"3b3"
23,21,27,3,"b",3,3,"b",3,"b",3,799.233999999997,0,"3b3"
23,21,28,3,"b",3,3,"b",3,"b",3,797.739999994054,0,"3b3"
23,21,29,3,"b",3,3,"b",3,"b",3,795.645999994042,0,"3b3"
23,21,30,3,"a",1,3,"b",3,"a",1,1653.05199999403,0,"3a1"
23,21,31,1,"a",0,3,"a",1,"a",0,1570.04800001191,0,"1a0"
23,21,32,0,"a",2,1,"a",0,"a",2,1198.35200000001,0,"0a2"
23,21,33,2,"b",2,0,"a",2,"b",2,1890.17400000597,0,"2b2"
23,21,34,2,"b",2,2,"b",2,"b",2,642.723999999987,0,"2b2"
23,21,35,2,"b",2,2,"b",2,"b",2,596.424000011932,0,"2b2"
23,21,36,2,"a",3,2,"b",2,"a",3,786.096000005957,0,"2a3"
23,21,37,3,"a",0,2,"a",3,"a",0,2461.86799999405,0,"3a0"
23,21,38,0,"a",2,3,"a",0,"a",2,2060.77400001787,0,"0a2"
23,21,39,2,"b",2,0,"a",2,"b",2,1407.29799999404,0,"2b2"
23,21,40,2,"b",2,2,"b",2,"b",2,659.462,0,"2b2"
23,21,41,2,"b",2,2,"b",2,"b",2,693.596000005957,0,"2b2"
23,21,42,2,"a",0,2,"b",2,"a",0,711.197999994038,0,"2a0"
23,21,43,0,"a",2,2,"a",0,"a",2,581.834000000003,0,"0a2"
23,21,44,2,"a",0,0,"a",2,"a",0,1023.59800001787,0,"2a0"
23,21,45,0,"a",2,2,"a",0,"a",2,941.821000017895,0,"0a2"
24,21,1,3,"a",1,NA,NA,NA,NA,NA,8311.20800002385,0,"3a1"
24,21,2,1,"b",0,3,"a",1,"b",0,4846.6409999523,0,"1b0"
24,21,3,0,"b",2,1,"b",0,"b",2,7462.72800002384,0,"0b2"
24,21,4,2,"a",3,0,"b",2,"a",3,3240.72699997615,0,"2a3"
24,21,5,3,"b",3,2,"a",3,"b",3,6219.21499997616,0,"3b3"
24,21,6,3,"b",3,3,"b",3,"b",3,1918.31399997615,0,"3b3"
24,21,7,3,"b",3,3,"b",3,"b",3,1446.81299995232,0,"3b3"
24,21,8,3,"b",3,3,"b",3,"b",3,1319.09,0,"3b3"
24,21,9,3,"a",0,3,"b",3,"a",0,1861.66999995231,0,"3a0"
24,21,10,0,"a",2,3,"a",0,"a",2,1560.943,0,"0a2"
24,21,11,2,"a",0,0,"a",2,"a",0,2912.08000004769,0,"2a0"
24,21,12,0,"b",2,2,"a",0,"b",2,2062.95999997616,0,"0b2"
24,21,13,2,"a",0,0,"b",2,"a",0,1534.12099995231,0,"2a0"
24,21,14,0,"a",2,2,"a",0,"a",2,8516.397,0,"0a2"
24,21,15,2,"a",0,0,"a",2,"a",0,3837.09900004769,0,"2a0"
24,21,16,0,"b",2,2,"a",0,"b",2,1203.90599995232,0,"0b2"
24,21,17,2,"b",2,0,"b",2,"b",2,897.84099997615,0,"2b2"
24,21,18,2,"b",2,2,"b",2,"b",2,1277.57800004768,0,"2b2"
24,21,19,2,"b",2,2,"b",2,"b",2,787.730999952328,0,"2b2"
24,21,20,2,"b",2,2,"b",2,"b",2,1219.90700002384,0,"2b2"
24,21,21,2,"a",3,2,"b",2,"a",3,203.663,1,"2a3"
24,21,22,3,"a",0,2,"a",3,"a",0,1039.69700002385,0,"3a0"
24,21,23,0,"b",2,3,"a",0,"b",2,1718.23099997616,0,"0b2"
24,21,24,2,"a",3,0,"b",2,"a",3,1260.75399997615,0,"2a3"
24,21,25,3,"b",3,2,"a",3,"b",3,680.766000023839,0,"3b3"
24,21,26,3,"a",1,3,"b",3,"a",1,1563.65500004767,0,"3a1"
24,21,27,1,"a",0,3,"a",1,"a",0,2472.20799995231,0,"1a0"
24,21,28,0,"b",2,1,"a",0,"b",2,2528.28400004769,0,"0b2"
24,21,29,2,"b",2,0,"b",2,"b",2,2949.28199997617,0,"2b2"
24,21,30,2,"a",3,2,"b",2,"a",3,686.58099997617,0,"2a3"
24,21,31,3,"b",3,2,"a",3,"b",3,2427.62900002385,0,"3b3"
24,21,32,3,"a",1,3,"b",3,"a",1,6558.274,0,"3a1"
24,21,33,1,"b",0,3,"a",1,"b",0,1811.08999997616,0,"1b0"
24,21,34,0,"a",2,1,"b",0,"a",2,845.751999999979,0,"0a2"
24,21,35,2,"a",0,0,"a",2,"a",0,2040.77400004771,0,"2a0"
24,21,36,0,"a",2,2,"a",0,"a",2,1439.74200000003,0,"0a2"
24,21,37,2,"b",2,0,"a",2,"b",2,468.946000047668,0,"2b2"
24,21,38,2,"a",0,2,"b",2,"a",0,2004.26800002385,0,"2a0"
24,21,39,0,"b",2,2,"a",0,"b",2,1563.53600000002,0,"0b2"
24,21,40,2,"a",0,0,"b",2,"a",0,2736.20200004766,0,"2a0"
24,21,41,0,"b",2,2,"a",0,"b",2,1169.23299997614,0,"0b2"
24,21,42,2,"a",3,0,"b",2,"a",3,403.085000000021,0,"2a3"
24,21,43,3,"b",3,2,"a",3,"b",3,1583.11300002382,0,"3b3"
24,21,44,3,"a",1,3,"b",3,"a",1,2302.61900004768,0,"3a1"
24,21,45,1,"b",0,3,"a",1,"b",0,1583.54899995233,0,"1b0"
25,22,1,2,"a",2,NA,NA,NA,NA,NA,1888.727,0,"2a2"
25,22,2,2,"a",2,2,"a",2,"a",2,1622.44899999404,0,"2a2"
25,22,3,2,"a",2,2,"a",2,"a",2,1389.123,0,"2a2"
25,22,4,2,"b",0,2,"a",2,"b",0,771.599999999999,0,"2b0"
25,22,5,0,"b",3,2,"b",0,"b",3,871.843999999997,0,"0b3"
25,22,6,3,"a",0,0,"b",3,"a",0,839.357999994041,0,"3a0"
25,22,7,0,"b",3,3,"a",0,"b",3,805.566000005958,0,"0b3"
25,22,8,3,"a",0,0,"b",3,"a",0,1755.77200000298,0,"3a0"
25,22,9,0,"a",3,3,"a",0,"a",3,1188.37000000596,0,"0a3"
25,22,10,3,"a",2,0,"a",3,"a",2,738.592000002987,0,"3a2"
25,22,11,2,"a",2,3,"a",2,"a",2,855.462,0,"2a2"
25,22,12,2,"b",1,2,"a",2,"b",1,705.604000005958,0,"2b1"
25,22,13,1,"b",3,2,"b",1,"b",3,872.411999997013,0,"1b3"
25,22,14,3,"b",2,1,"b",3,"b",2,805.888000002975,0,"3b2"
25,22,15,2,"b",0,3,"b",2,"b",0,521.855999997017,0,"2b0"
25,22,16,0,"b",3,2,"b",0,"b",3,755.318000002982,0,"0b3"
25,22,17,3,"b",3,0,"b",3,"b",3,705.55600000298,0,"3b3"
25,22,18,3,"b",3,3,"b",3,"b",3,722.292000002984,0,"3b3"
25,22,19,3,"b",2,3,"b",3,"b",2,505.761999994036,0,"3b2"
25,22,20,2,"b",1,3,"b",2,"b",1,1105.95600000596,0,"2b1"
25,22,21,1,"b",1,2,"b",1,"b",1,1005.20799999403,0,"1b1"
25,22,22,1,"b",3,1,"b",1,"b",3,672.15599999702,0,"1b3"
25,22,23,3,"a",2,1,"b",3,"a",2,688.82400000596,0,"3a2"
25,22,24,2,"a",2,3,"a",2,"a",2,872.326000000001,0,"2a2"
25,22,25,2,"b",1,2,"a",2,"b",1,572.501999994041,0,"2b1"
25,22,26,1,"b",1,2,"b",1,"b",1,688.448000002987,0,"1b1"
25,22,27,1,"b",1,1,"b",1,"b",1,471.816000000006,0,"1b1"
25,22,28,1,"b",1,1,"b",1,"b",1,538.641999994041,0,"1b1"
25,22,29,1,"b",1,1,"b",1,"b",1,505.437999999995,0,"1b1"
25,22,30,1,"a",0,1,"b",1,"a",0,555.665999999997,0,"1a0"
25,22,31,0,"b",3,1,"a",0,"b",3,455.661999994045,0,"0b3"
25,22,32,3,"a",2,0,"b",3,"a",2,555.854000005958,0,"3a2"
25,22,33,2,"b",1,3,"a",2,"b",1,421.804999997024,0,"2b1"
25,22,34,1,"a",1,2,"b",1,"a",1,455.328999994046,0,"1a1"
25,22,35,1,"b",3,1,"a",1,"b",3,455.420999997019,0,"1b3"
25,22,36,3,"a",2,1,"b",3,"a",2,372.112999994046,0,"3a2"
25,22,37,2,"b",1,3,"a",2,"b",1,738.969000005964,0,"2b1"
25,22,38,1,"b",1,2,"b",1,"b",1,489.138999999996,0,"1b1"
25,22,39,1,"b",3,1,"b",1,"b",3,422.532999999996,0,"1b3"
25,22,40,3,"a",2,1,"b",3,"a",2,488.457999994032,0,"3a2"
25,22,41,2,"a",2,3,"a",2,"a",2,488.618000002985,0,"2a2"
25,22,42,2,"a",2,2,"a",2,"a",2,555.378000005963,0,"2a2"
25,22,43,2,"b",0,2,"a",2,"b",0,572.207999999999,0,"2b0"
25,22,44,0,"b",3,2,"b",0,"b",3,522.371999994037,0,"0b3"
25,22,45,3,"b",2,0,"b",3,"b",2,439.133999997022,0,"3b2"
26,21,1,0,"b",2,NA,NA,NA,NA,NA,7508.46000007153,0,"0b2"
26,21,2,2,"a",0,0,"b",2,"a",0,9731.73099997616,0,"2a0"
26,21,3,0,"a",2,2,"a",0,"a",2,7254.84200002384,0,"0a2"
26,21,4,2,"b",2,0,"a",2,"b",2,8919.61199997616,0,"2b2"
26,21,5,2,"a",3,2,"b",2,"a",3,4797.20100004767,0,"2a3"
26,21,6,3,"a",1,2,"a",3,"a",1,7274.43000002383,0,"3a1"
26,21,7,1,"b",0,3,"a",1,"b",0,3303.44700002385,0,"1b0"
26,21,8,0,"a",2,1,"b",0,"a",2,1848.65199997617,0,"0a2"
26,21,9,2,"a",0,0,"a",2,"a",0,683.135999999999,0,"2a0"
26,21,10,0,"a",2,2,"a",0,"a",2,7331.64000004769,0,"0a2"
26,21,11,2,"a",0,0,"a",2,"a",0,3395.83900000001,0,"2a0"
26,21,12,0,"b",2,2,"a",0,"b",2,2297.26600004768,0,"0b2"
26,21,13,2,"a",3,0,"b",2,"a",3,3837.24800007153,0,"2a3"
26,21,14,3,"a",0,2,"a",3,"a",0,3697.57000002381,0,"3a0"
26,21,15,0,"a",2,3,"a",0,"a",2,1628.89300004771,0,"0a2"
26,21,16,2,"a",0,0,"a",2,"a",0,1562.49700002384,0,"2a0"
26,21,17,0,"a",2,2,"a",0,"a",2,2178.88500004768,0,"0a2"
26,21,18,2,"a",3,0,"a",2,"a",3,3144.6820000477,0,"2a3"
26,21,19,3,"b",3,2,"a",3,"b",3,5244.0520000477,0,"3b3"
26,21,20,3,"b",3,3,"b",3,"b",3,1595.56800007151,0,"3b3"
26,21,21,3,"b",3,3,"b",3,"b",3,1016.26300002384,0,"3b3"
26,21,22,3,"b",3,3,"b",3,"b",3,2087.71199997613,0,"3b3"
26,21,23,3,"b",3,3,"b",3,"b",3,1364.098,0,"3b3"
26,21,24,3,"a",1,3,"b",3,"a",1,1026.21199997613,0,"3a1"
26,21,25,1,"a",0,3,"a",1,"a",0,1869.27599997615,0,"1a0"
26,21,26,0,"b",2,1,"a",0,"b",2,2049.73700000002,0,"0b2"
26,21,27,2,"b",2,0,"b",2,"b",2,276.422999976145,1,"2b2"
26,21,28,2,"b",2,2,"b",2,"b",2,497.624999976135,0,"2b2"
26,21,29,2,"b",2,2,"b",2,"b",2,1185.17999999999,0,"2b2"
26,21,30,2,"a",0,2,"b",2,"a",0,1238.64700007153,0,"2a0"
26,21,31,0,"b",2,2,"a",0,"b",2,2523.76500000001,0,"0b2"
26,21,32,2,"b",2,0,"b",2,"b",2,1113.02100002381,0,"2b2"
26,21,33,2,"b",2,2,"b",2,"b",2,668.041000071506,0,"2b2"
26,21,34,2,"b",2,2,"b",2,"b",2,881.050000071526,0,"2b2"
26,21,35,2,"b",2,2,"b",2,"b",2,687.59999997617,0,"2b2"
26,21,36,2,"b",2,2,"b",2,"b",2,956.52600002382,0,"2b2"
26,21,37,2,"a",3,2,"b",2,"a",3,930.118000000017,0,"2a3"
26,21,38,3,"a",0,2,"a",3,"a",0,1271.03999999998,0,"3a0"
26,21,39,0,"a",2,3,"a",0,"a",2,693.757000047655,0,"0a2"
26,21,40,2,"b",2,0,"a",2,"b",2,1224.72099997615,0,"2b2"
26,21,41,2,"b",2,2,"b",2,"b",2,619.168999976129,0,"2b2"
26,21,42,2,"a",0,2,"b",2,"a",0,514.766000000003,0,"2a0"
26,21,43,0,"b",2,2,"a",0,"b",2,3340.66500007152,0,"0b2"
26,21,44,2,"a",0,0,"b",2,"a",0,603.077000047662,0,"2a0"
26,21,45,0,"b",2,2,"a",0,"b",2,825.056999999972,0,"0b2"
27,22,1,1,"b",1,NA,NA,NA,NA,NA,7328.02999990463,0,"1b1"
27,22,2,1,"b",1,1,"b",1,"b",1,2969.57599985696,0,"1b1"
27,22,3,1,"b",3,1,"b",1,"b",3,1961.20400004767,0,"1b3"
27,22,4,3,"b",2,1,"b",3,"b",2,6061.29699999999,0,"3b2"
27,22,5,2,"b",1,3,"b",2,"b",1,3511.19100004769,0,"2b1"
27,22,6,1,"b",3,2,"b",1,"b",3,7744.50599999999,0,"1b3"
27,22,7,3,"b",3,1,"b",3,"b",3,3194.55299990464,0,"3b3"
27,22,8,3,"b",2,3,"b",3,"b",2,3977.85499985694,0,"3b2"
27,22,9,2,"b",1,3,"b",2,"b",1,2378.1880000477,0,"2b1"
27,22,10,1,"b",1,2,"b",1,"b",1,1386.1189999523,0,"1b1"
27,22,11,1,"b",1,1,"b",1,"b",1,1586.34899990464,0,"1b1"
27,22,12,1,"b",1,1,"b",1,"b",1,1036.48699995232,0,"1b1"
27,22,13,1,"a",1,1,"b",1,"a",1,2628.43700000001,0,"1a1"
27,22,14,1,"a",0,1,"a",1,"a",0,2002.76699999999,0,"1a0"
27,22,15,0,"a",3,1,"a",0,"a",3,2736.36199995232,0,"0a3"
27,22,16,3,"a",2,0,"a",3,"a",2,903.178999952303,0,"3a2"
27,22,17,2,"a",2,3,"a",2,"a",2,1752.73699990462,0,"2a2"
27,22,18,2,"a",2,2,"a",2,"a",2,1994.74799999999,0,"2a2"
27,22,19,2,"a",2,2,"a",2,"a",2,1169.63599990463,0,"2a2"
27,22,20,2,"a",2,2,"a",2,"a",2,1003.15700004768,0,"2a2"
27,22,21,2,"a",2,2,"a",2,"a",2,777.910000047676,0,"2a2"
27,22,22,2,"a",2,2,"a",2,"a",2,703.048999904626,0,"2a2"
27,22,23,2,"b",1,2,"a",2,"b",1,10052.917999857,0,"2b1"
27,22,24,1,"b",3,2,"b",1,"b",3,1794.55600004768,0,"1b3"
27,22,25,3,"a",2,1,"b",3,"a",2,7694.6690000477,0,"3a2"
27,22,26,2,"a",2,3,"a",2,"a",2,969.604999952309,0,"2a2"
27,22,27,2,"a",2,2,"a",2,"a",2,552.950999856956,0,"2a2"
27,22,28,2,"b",0,2,"a",2,"b",0,1619.614,0,"2b0"
27,22,29,0,"b",3,2,"b",0,"b",3,2869.78599985695,0,"0b3"
27,22,30,3,"b",3,0,"b",3,"b",3,4544.93900004769,0,"3b3"
27,22,31,3,"b",2,3,"b",3,"b",2,1786.462,0,"3b2"
27,22,32,2,"b",0,3,"b",2,"b",0,2819.7750000477,0,"2b0"
27,22,33,0,"a",3,2,"b",0,"a",3,1261.16099995232,0,"0a3"
27,22,34,3,"a",0,0,"a",3,"a",0,819.652000047674,0,"3a0"
27,22,35,0,"a",3,3,"a",0,"a",3,2386.2260000477,0,"0a3"
27,22,36,3,"a",2,0,"a",3,"a",2,1403.12899995231,0,"3a2"
27,22,37,2,"b",0,3,"a",2,"b",0,2694.79300004768,0,"2b0"
27,22,38,0,"b",3,2,"b",0,"b",3,5077.74599999998,0,"0b3"
27,22,39,3,"b",3,0,"b",3,"b",3,894.789999952307,0,"3b3"
27,22,40,3,"b",2,3,"b",3,"b",2,819.377999952296,0,"3b2"
27,22,41,2,"b",1,3,"b",2,"b",1,977.784999952302,0,"2b1"
27,22,42,1,"b",3,2,"b",1,"b",3,1144.73200000002,0,"1b3"
27,22,43,3,"a",0,1,"b",3,"a",0,1553.08499990462,0,"3a0"
27,22,44,0,"a",3,3,"a",0,"a",3,1211.255,0,"0a3"
27,22,45,3,"a",0,0,"a",3,"a",0,1052.95399990462,0,"3a0"
28,21,1,2,"a",0,NA,NA,NA,NA,NA,1870.72700004769,0,"2a0"
28,21,2,0,"a",2,2,"a",0,"a",2,1570.01,0,"0a2"
28,21,3,2,"a",0,0,"a",2,"a",0,1105.02900004768,0,"2a0"
28,21,4,0,"b",2,2,"a",0,"b",2,1056.87100009537,0,"0b2"
28,21,5,2,"b",2,0,"b",2,"b",2,1268.589,0,"2b2"
28,21,6,2,"a",3,2,"b",2,"a",3,2388.418,0,"2a3"
28,21,7,3,"a",1,2,"a",3,"a",1,4366.53200014305,0,"3a1"
28,21,8,1,"a",0,3,"a",1,"a",0,1133.77700009537,0,"1a0"
28,21,9,0,"a",2,1,"a",0,"a",2,1855.29600004768,0,"0a2"
28,21,10,2,"a",0,0,"a",2,"a",0,4732.09300014305,0,"2a0"
28,21,11,0,"a",2,2,"a",0,"a",2,2017.33900009537,0,"0a2"
28,21,12,2,"a",3,0,"a",2,"a",3,2010.11900009536,0,"2a3"
28,21,13,3,"b",3,2,"a",3,"b",3,1384.77699995232,0,"3b3"
28,21,14,3,"b",3,3,"b",3,"b",3,849.501999999993,0,"3b3"
28,21,15,3,"a",1,3,"b",3,"a",1,1253.16200009537,0,"3a1"
28,21,16,1,"b",0,3,"a",1,"b",0,881.933000047677,0,"1b0"
28,21,17,0,"b",2,1,"b",0,"b",2,5010.62800009537,0,"0b2"
28,21,18,2,"b",2,0,"b",2,"b",2,1636.38699995232,0,"2b2"
28,21,19,2,"b",2,2,"b",2,"b",2,2247.12500004769,0,"2b2"
28,21,20,2,"a",3,2,"b",2,"a",3,979.880999952322,0,"2a3"
28,21,21,3,"a",1,2,"a",3,"a",1,1078.55900004768,0,"3a1"
28,21,22,1,"b",0,3,"a",1,"b",0,1211.77300014305,0,"1b0"
28,21,23,0,"b",2,1,"b",0,"b",2,1940.91,0,"0b2"
28,21,24,2,"b",2,0,"b",2,"b",2,809.172000047678,0,"2b2"
28,21,25,2,"b",2,2,"b",2,"b",2,611.159999952317,0,"2b2"
28,21,26,2,"a",0,2,"b",2,"a",0,1021.999,0,"2a0"
28,21,27,0,"a",2,2,"a",0,"a",2,1327.11500014305,0,"0a2"
28,21,28,2,"a",0,0,"a",2,"a",0,1834.25200014305,0,"2a0"
28,21,29,0,"b",2,2,"a",0,"b",2,1560.44500004768,0,"0b2"
28,21,30,2,"a",0,0,"b",2,"a",0,2171.82900009537,0,"2a0"
28,21,31,0,"a",2,2,"a",0,"a",2,952.26799995231,0,"0a2"
28,21,32,2,"a",3,0,"a",2,"a",3,512.955000047688,0,"2a3"
28,21,33,3,"a",0,2,"a",3,"a",0,905.506000095367,0,"3a0"
28,21,34,0,"b",2,3,"a",0,"b",2,1765.10600004769,0,"0b2"
28,21,35,2,"a",3,0,"b",2,"a",3,2330.14999999999,0,"2a3"
28,21,36,3,"b",3,2,"a",3,"b",3,1318.56,0,"3b3"
28,21,37,3,"b",3,3,"b",3,"b",3,1658.75100014306,0,"3b3"
28,21,38,3,"a",0,3,"b",3,"a",0,507.014000143041,0,"3a0"
28,21,39,0,"a",2,3,"a",0,"a",2,766.422000143037,0,"0a2"
28,21,40,2,"a",0,0,"a",2,"a",0,2306.16899999999,0,"2a0"
28,21,41,0,"a",2,2,"a",0,"a",2,2103.82600004767,0,"0a2"
28,21,42,2,"a",0,0,"a",2,"a",0,754.05799999999,0,"2a0"
28,21,43,0,"b",2,2,"a",0,"b",2,1327.02300014306,0,"0b2"
28,21,44,2,"a",3,0,"b",2,"a",3,724.78400014306,0,"2a3"
28,21,45,3,"b",3,2,"a",3,"b",3,1643.04900004767,0,"3b3"
29,21,1,3,"b",3,NA,NA,NA,NA,NA,2354.69699990463,0,"3b3"
29,21,2,3,"b",3,3,"b",3,"b",3,1302.71799997616,0,"3b3"
29,21,3,3,"a",1,3,"b",3,"a",1,455.417999952318,0,"3a1"
29,21,4,1,"a",0,3,"a",1,"a",0,934.541999928471,0,"1a0"
29,21,5,0,"b",2,1,"a",0,"b",2,1419.00499990463,0,"0b2"
29,21,6,2,"a",0,0,"b",2,"a",0,5427.56699990463,0,"2a0"
29,21,7,0,"b",2,2,"a",0,"b",2,1384.67299990464,0,"0b2"
29,21,8,2,"b",2,0,"b",2,"b",2,983.180999904638,0,"2b2"
29,21,9,2,"a",0,2,"b",2,"a",0,1981.82799992847,0,"2a0"
29,21,10,0,"a",2,2,"a",0,"a",2,1572.89399992848,0,"0a2"
29,21,11,2,"a",3,0,"a",2,"a",3,1548.85399990463,0,"2a3"
29,21,12,3,"a",0,2,"a",3,"a",0,726.409999976153,0,"3a0"
29,21,13,0,"a",2,3,"a",0,"a",2,678.423999904626,0,"0a2"
29,21,14,2,"b",2,0,"a",2,"b",2,1097.10799990463,0,"2b2"
29,21,15,2,"b",2,2,"b",2,"b",2,355.033999904626,0,"2b2"
29,21,16,2,"a",0,2,"b",2,"a",0,1219.59999990463,0,"2a0"
29,21,17,0,"a",2,2,"a",0,"a",2,705.376999999993,0,"0a2"
29,21,18,2,"a",3,0,"a",2,"a",3,332.424999976152,0,"2a3"
29,21,19,3,"a",1,2,"a",3,"a",1,316.650999999998,0,"3a1"
29,21,20,1,"a",0,3,"a",1,"a",0,318.67899990463,0,"1a0"
29,21,21,0,"a",2,1,"a",0,"a",2,328.452000000005,0,"0a2"
29,21,22,2,"a",0,0,"a",2,"a",0,433.956999904636,0,"2a0"
29,21,23,0,"b",2,2,"a",0,"b",2,639.42499990463,0,"0b2"
29,21,24,2,"b",2,0,"b",2,"b",2,315.76599990463,0,"2b2"
29,21,25,2,"a",0,2,"b",2,"a",0,4877.74399992847,0,"2a0"
29,21,26,0,"b",2,2,"a",0,"b",2,848.715999904627,0,"0b2"
29,21,27,2,"a",0,0,"b",2,"a",0,893.907999999996,0,"2a0"
29,21,28,0,"a",2,2,"a",0,"a",2,760.479999999996,0,"0a2"
29,21,29,2,"b",2,0,"a",2,"b",2,441.031000000003,0,"2b2"
29,21,30,2,"a",3,2,"b",2,"a",3,872.311999952319,0,"2a3"
29,21,31,3,"a",1,2,"a",3,"a",1,316.223999904629,0,"3a1"
29,21,32,1,"b",0,3,"a",1,"b",0,1324.13,0,"1b0"
29,21,33,0,"a",2,1,"b",0,"a",2,1582.029,0,"0a2"
29,21,34,2,"a",3,0,"a",2,"a",3,3813.31699990464,0,"2a3"
29,21,35,3,"a",0,2,"a",3,"a",0,1114.42099990463,0,"3a0"
29,21,36,0,"a",2,3,"a",0,"a",2,6804.66199997616,0,"0a2"
29,21,37,2,"a",3,0,"a",2,"a",3,489.776000000013,0,"2a3"
29,21,38,3,"a",1,2,"a",3,"a",1,573.103999999992,0,"3a1"
29,21,39,1,"a",0,3,"a",1,"a",0,1964.976,0,"1a0"
29,21,40,0,"b",2,1,"a",0,"b",2,541.619000000006,0,"0b2"
29,21,41,2,"a",0,0,"b",2,"a",0,942.159000000014,0,"2a0"
29,21,42,0,"a",2,2,"a",0,"a",2,798.467999976157,0,"0a2"
29,21,43,2,"a",0,0,"a",2,"a",0,308.556000000011,0,"2a0"
29,21,44,0,"a",2,2,"a",0,"a",2,679.09099997615,0,"0a2"
29,21,45,2,"a",3,0,"a",2,"a",3,522.296999976155,0,"2a3"
30,21,1,1,"a",0,NA,NA,NA,NA,NA,3156.92399990463,0,"1a0"
30,21,2,0,"a",2,1,"a",0,"a",2,1438.67,0,"0a2"
30,21,3,2,"a",0,0,"a",2,"a",0,1282.80899990464,0,"2a0"
30,21,4,0,"a",2,2,"a",0,"a",2,1930.82299992847,0,"0a2"
30,21,5,2,"a",0,0,"a",2,"a",0,6576.78399990463,0,"2a0"
30,21,6,0,"a",2,2,"a",0,"a",2,606.600999999995,0,"0a2"
30,21,7,2,"b",2,0,"a",2,"b",2,850.328999976162,0,"2b2"
30,21,8,2,"b",2,2,"b",2,"b",2,1768.18099990464,0,"2b2"
30,21,9,2,"b",2,2,"b",2,"b",2,2583.10799995232,0,"2b2"
30,21,10,2,"a",3,2,"b",2,"a",3,4343.664,0,"2a3"
30,21,11,3,"b",3,2,"a",3,"b",3,2703.50399990463,0,"3b3"
30,21,12,3,"a",0,3,"b",3,"a",0,2278.65199995232,0,"3a0"
30,21,13,0,"a",2,3,"a",0,"a",2,2611.21400000001,0,"0a2"
30,21,14,2,"b",2,0,"a",2,"b",2,7645.09299990463,0,"2b2"
30,21,15,2,"b",2,2,"b",2,"b",2,1312.734,0,"2b2"
30,21,16,2,"b",2,2,"b",2,"b",2,1313.65199997615,0,"2b2"
30,21,17,2,"b",2,2,"b",2,"b",2,712.010999928476,0,"2b2"
30,21,18,2,"a",3,2,"b",2,"a",3,757.315999976156,0,"2a3"
30,21,19,3,"a",0,2,"a",3,"a",0,3880.44399995232,0,"3a0"
30,21,20,0,"a",2,3,"a",0,"a",2,3407.34299990463,0,"0a2"
30,21,21,2,"b",2,0,"a",2,"b",2,14999.667,0,"2b2"
30,21,22,2,"a",0,2,"b",2,"a",0,2808.04499995231,0,"2a0"
30,21,23,0,"a",2,2,"a",0,"a",2,968.108999928489,0,"0a2"
30,21,24,2,"b",2,0,"a",2,"b",2,11857.954,0,"2b2"
30,21,25,2,"b",2,2,"b",2,"b",2,1622.74799999999,0,"2b2"
30,21,26,2,"a",3,2,"b",2,"a",3,10399.1229999046,0,"2a3"
30,21,27,3,"b",3,2,"a",3,"b",3,14999.85,0,"3b3"
30,21,28,3,"a",1,3,"b",3,"a",1,1675.93899990464,0,"3a1"
30,21,29,1,"b",0,3,"a",1,"b",0,561.070999928488,0,"1b0"
30,21,30,0,"b",2,1,"b",0,"b",2,1278.05600000001,0,"0b2"
30,21,31,2,"a",0,0,"b",2,"a",0,808.448999952321,0,"2a0"
30,21,32,0,"b",2,2,"a",0,"b",2,1153.00099992848,0,"0b2"
30,21,33,2,"a",3,0,"b",2,"a",3,335.713999904634,0,"2a3"
30,21,34,3,"a",1,2,"a",3,"a",1,1827.90499992846,0,"3a1"
30,21,35,1,"a",0,3,"a",1,"a",0,4232.25099999999,0,"1a0"
30,21,36,0,"b",2,1,"a",0,"b",2,2897.304,0,"0b2"
30,21,37,2,"a",0,0,"b",2,"a",0,636.951999952318,0,"2a0"
30,21,38,0,"b",2,2,"a",0,"b",2,1270.68599992848,0,"0b2"
30,21,39,2,"a",0,0,"b",2,"a",0,643.812999904621,0,"2a0"
30,21,40,0,"b",2,2,"a",0,"b",2,1076.63599992846,0,"0b2"
30,21,41,2,"a",0,0,"b",2,"a",0,735.188999928476,0,"2a0"
30,21,42,0,"a",2,2,"a",0,"a",2,1115.14299995231,0,"0a2"
30,21,43,2,"b",2,0,"a",2,"b",2,821.300999952306,0,"2b2"
30,21,44,2,"b",2,2,"b",2,"b",2,1159.41799997617,0,"2b2"
30,21,45,2,"a",0,2,"b",2,"a",0,1736.28799990463,0,"2a0"
31,22,1,3,"a",0,NA,NA,NA,NA,NA,3315.33400000112,0,"3a0"
31,22,2,0,"a",3,3,"a",0,"a",3,2338.25200000111,0,"0a3"
31,22,3,3,"b",2,0,"a",3,"b",2,1773.73800000112,0,"3b2"
31,22,4,2,"a",2,3,"b",2,"a",2,2593.72600000075,0,"2a2"
31,22,5,2,"a",2,2,"a",2,"a",2,4400.08200000112,0,"2a2"
31,22,6,2,"b",1,2,"a",2,"b",1,2933.95000000112,0,"2b1"
31,22,7,1,"a",0,2,"b",1,"a",0,1873.72600000075,0,"1a0"
31,22,8,0,"b",3,1,"a",0,"b",3,5142.06300000113,0,"0b3"
31,22,9,3,"a",2,0,"b",3,"a",2,8174.81000000075,0,"3a2"
31,22,10,2,"b",0,3,"a",2,"b",0,2220.71500000113,0,"2b0"
31,22,11,0,"a",3,2,"b",0,"a",3,5401.65700000073,0,"0a3"
31,22,12,3,"b",3,0,"a",3,"b",3,1964.30700000076,0,"3b3"
31,22,13,3,"a",2,3,"b",3,"a",2,4809.05300000074,0,"3a2"
31,22,14,2,"a",2,3,"a",2,"a",2,4026.39900000111,0,"2a2"
31,22,15,2,"a",2,2,"a",2,"a",2,1476.39400000076,0,"2a2"
31,22,16,2,"b",1,2,"a",2,"b",1,1011.68100000074,0,"2b1"
31,22,17,1,"b",1,2,"b",1,"b",1,1145.53700000074,0,"1b1"
31,22,18,1,"a",1,1,"b",1,"a",1,2665.94400000112,0,"1a1"
31,22,19,1,"a",0,1,"a",1,"a",0,5728.14300000074,0,"1a0"
31,22,20,0,"b",3,1,"a",0,"b",3,1119.78100000074,0,"0b3"
31,22,21,3,"b",3,0,"b",3,"b",3,1172.61900000073,0,"3b3"
31,22,22,3,"b",2,3,"b",3,"b",2,1490.01900000111,0,"3b2"
31,22,23,2,"b",1,3,"b",2,"b",1,1084.90600000074,0,"2b1"
31,22,24,1,"b",1,2,"b",1,"b",1,2160.82000000111,0,"1b1"
31,22,25,1,"b",3,1,"b",1,"b",3,1480.6660000011,0,"1b3"
31,22,26,3,"a",0,1,"b",3,"a",0,1029.78500000111,0,"3a0"
31,22,27,0,"a",3,3,"a",0,"a",3,1263.97100000113,0,"0a3"
31,22,28,3,"a",2,0,"a",3,"a",2,3184.89300000074,0,"3a2"
31,22,29,2,"a",2,3,"a",2,"a",2,5044.40800000075,0,"2a2"
31,22,30,2,"b",0,2,"a",2,"b",0,2434.49100000074,0,"2b0"
31,22,31,0,"b",3,2,"b",0,"b",3,5482.96500000075,0,"0b3"
31,22,32,3,"a",2,0,"b",3,"a",2,5581.47300000075,0,"3a2"
31,22,33,2,"a",2,3,"a",2,"a",2,5724.96300000075,0,"2a2"
31,22,34,2,"b",0,2,"a",2,"b",0,1361.93100000074,0,"2b0"
31,22,35,0,"b",3,2,"b",0,"b",3,2952.61400000038,0,"0b3"
31,22,36,3,"a",0,0,"b",3,"a",0,2875.63600000076,0,"3a0"
31,22,37,0,"a",3,3,"a",0,"a",3,2353.5980000011,0,"0a3"
31,22,38,3,"a",0,0,"a",3,"a",0,1754.68700000073,0,"3a0"
31,22,39,0,"a",3,3,"a",0,"a",3,6520.6640000011,0,"0a3"
31,22,40,3,"b",2,0,"a",3,"b",2,2918.57800000074,0,"3b2"
31,22,41,2,"a",2,3,"b",2,"a",2,1826.01100000076,0,"2a2"
31,22,42,2,"b",1,2,"a",2,"b",1,1057.25300000072,0,"2b1"
31,22,43,1,"b",1,2,"b",1,"b",1,475.432000000728,0,"1b1"
31,22,44,1,"b",3,1,"b",1,"b",3,675.519000000728,0,"1b3"
31,22,45,3,"b",3,1,"b",3,"b",3,1257.10800000076,0,"3b3"
32,21,1,1,"b",0,NA,NA,NA,NA,NA,3543,0,"1b0"
32,21,2,0,"b",2,1,"b",0,"b",2,2659.00000000001,0,"0b2"
32,21,3,2,"b",2,0,"b",2,"b",2,2510,0,"2b2"
32,21,4,2,"a",0,2,"b",2,"a",0,2626,0,"2a0"
32,21,5,0,"a",2,2,"a",0,"a",2,1093,0,"0a2"
32,21,6,2,"a",0,0,"a",2,"a",0,1710,0,"2a0"
32,21,7,0,"a",2,2,"a",0,"a",2,1626,0,"0a2"
32,21,8,2,"a",3,0,"a",2,"a",3,1410,0,"2a3"
32,21,9,3,"a",1,2,"a",3,"a",1,1193,0,"3a1"
32,21,10,1,"a",0,3,"a",1,"a",0,1876,0,"1a0"
32,21,11,0,"b",2,1,"a",0,"b",2,3094,0,"0b2"
32,21,12,2,"b",2,0,"b",2,"b",2,1660,0,"2b2"
32,21,13,2,"b",2,2,"b",2,"b",2,3327,0,"2b2"
32,21,14,2,"b",2,2,"b",2,"b",2,827,0,"2b2"
32,21,15,2,"b",2,2,"b",2,"b",2,694,0,"2b2"
32,21,16,2,"a",3,2,"b",2,"a",3,1027,0,"2a3"
32,21,17,3,"a",0,2,"a",3,"a",0,844,0,"3a0"
32,21,18,0,"a",2,3,"a",0,"a",2,1294,0,"0a2"
32,21,19,2,"a",0,0,"a",2,"a",0,860,0,"2a0"
32,21,20,0,"a",2,2,"a",0,"a",2,578,0,"0a2"
32,21,21,2,"a",0,0,"a",2,"a",0,661,0,"2a0"
32,21,22,0,"a",2,2,"a",0,"a",2,645,0,"0a2"
32,21,23,2,"a",3,0,"a",2,"a",3,811,0,"2a3"
32,21,24,3,"a",1,2,"a",3,"a",1,828,0,"3a1"
32,21,25,1,"a",0,3,"a",1,"a",0,944,0,"1a0"
32,21,26,0,"a",2,1,"a",0,"a",2,978,0,"0a2"
32,21,27,2,"a",0,0,"a",2,"a",0,1295,0,"2a0"
32,21,28,0,"b",2,2,"a",0,"b",2,1061,0,"0b2"
32,21,29,2,"b",2,0,"b",2,"b",2,594,0,"2b2"
32,21,30,2,"b",2,2,"b",2,"b",2,1278,0,"2b2"
32,21,31,2,"b",2,2,"b",2,"b",2,7296,0,"2b2"
32,21,32,2,"a",0,2,"b",2,"a",0,745,0,"2a0"
32,21,33,0,"a",2,2,"a",0,"a",2,1011,0,"0a2"
32,21,34,2,"a",3,0,"a",2,"a",3,3113,0,"2a3"
32,21,35,3,"a",0,2,"a",3,"a",0,745.000000000029,0,"3a0"
32,21,36,0,"a",2,3,"a",0,"a",2,845.000000000029,0,"0a2"
32,21,37,2,"a",0,0,"a",2,"a",0,812,0,"2a0"
32,21,38,0,"a",2,2,"a",0,"a",2,612,0,"0a2"
32,21,39,2,"a",0,0,"a",2,"a",0,545,0,"2a0"
32,21,40,0,"a",2,2,"a",0,"a",2,1212,0,"0a2"
32,21,41,2,"a",3,0,"a",2,"a",3,629.000000000029,0,"2a3"
32,21,42,3,"a",1,2,"a",3,"a",1,1045,0,"3a1"
32,21,43,1,"a",0,3,"a",1,"a",0,2512,0,"1a0"
32,21,44,0,"a",2,1,"a",0,"a",2,1180.00000000003,0,"0a2"
32,21,45,2,"a",0,0,"a",2,"a",0,596.000000000029,0,"2a0"
33,21,1,0,"a",2,NA,NA,NA,NA,NA,1737.26400000895,0,"0a2"
33,21,2,2,"a",0,0,"a",2,"a",0,1696.62600000894,0,"2a0"
33,21,3,0,"a",2,2,"a",0,"a",2,1634.51600000595,0,"0a2"
33,21,4,2,"a",3,0,"a",2,"a",3,2728.57300000596,0,"2a3"
33,21,5,3,"a",1,2,"a",3,"a",1,3069.94100000001,0,"3a1"
33,21,6,1,"a",0,3,"a",1,"a",0,1190.18500000895,0,"1a0"
33,21,7,0,"a",2,1,"a",0,"a",2,1773.88600001192,0,"0a2"
33,21,8,2,"a",3,0,"a",2,"a",3,1189.99600000597,0,"2a3"
33,21,9,3,"b",3,2,"a",3,"b",3,1206.12100000893,0,"3b3"
33,21,10,3,"b",3,3,"b",3,"b",3,1253.28900001192,0,"3b3"
33,21,11,3,"b",3,3,"b",3,"b",3,1130.734,0,"3b3"
33,21,12,3,"a",0,3,"b",3,"a",0,1068.74800000596,0,"3a0"
33,21,13,0,"b",2,3,"a",0,"b",2,1105.53,0,"0b2"
33,21,14,2,"b",2,0,"b",2,"b",2,1444.69300000597,0,"2b2"
33,21,15,2,"b",2,2,"b",2,"b",2,1666.143,0,"2b2"
33,21,16,2,"a",0,2,"b",2,"a",0,1462.62900001192,0,"2a0"
33,21,17,0,"b",2,2,"a",0,"b",2,1467.52099999999,0,"0b2"
33,21,18,2,"b",2,0,"b",2,"b",2,1424.336,0,"2b2"
33,21,19,2,"a",0,2,"b",2,"a",0,1446.99400000001,0,"2a0"
33,21,20,0,"b",2,2,"a",0,"b",2,1460.14100000595,0,"0b2"
33,21,21,2,"b",2,0,"b",2,"b",2,1272.927,0,"2b2"
33,21,22,2,"a",3,2,"b",2,"a",3,1341.731,0,"2a3"
33,21,23,3,"b",3,2,"a",3,"b",3,1303.52800000596,0,"3b3"
33,21,24,3,"b",3,3,"b",3,"b",3,1530.79300001191,0,"3b3"
33,21,25,3,"b",3,3,"b",3,"b",3,1284.91100001193,0,"3b3"
33,21,26,3,"a",1,3,"b",3,"a",1,1312.95700000596,0,"3a1"
33,21,27,1,"b",0,3,"a",1,"b",0,939.520000011922,0,"1b0"
33,21,28,0,"b",2,1,"b",0,"b",2,1069.53500001191,0,"0b2"
33,21,29,2,"b",2,0,"b",2,"b",2,906.230000011914,0,"2b2"
33,21,30,2,"b",2,2,"b",2,"b",2,701.736999999994,0,"2b2"
33,21,31,2,"b",2,2,"b",2,"b",2,729.228999999992,0,"2b2"
33,21,32,2,"a",0,2,"b",2,"a",0,522.901000002981,0,"2a0"
33,21,33,0,"a",2,2,"a",0,"a",2,845.720000011934,0,"0a2"
33,21,34,2,"b",2,0,"a",2,"b",2,707.038000005967,0,"2b2"
33,21,35,2,"b",2,2,"b",2,"b",2,606.508999999991,0,"2b2"
33,21,36,2,"b",2,2,"b",2,"b",2,437.910999999993,0,"2b2"
33,21,37,2,"b",2,2,"b",2,"b",2,355.959000000003,0,"2b2"
33,21,38,2,"b",2,2,"b",2,"b",2,413.042000002984,0,"2b2"
33,21,39,2,"a",0,2,"b",2,"a",0,427.59500000297,0,"2a0"
33,21,40,0,"a",2,2,"a",0,"a",2,2217.13800000597,0,"0a2"
33,21,41,2,"a",3,0,"a",2,"a",3,1407.93200000597,0,"2a3"
33,21,42,3,"a",1,2,"a",3,"a",1,743.088000011921,0,"3a1"
33,21,43,1,"a",0,3,"a",1,"a",0,727.667000002984,0,"1a0"
33,21,44,0,"b",2,1,"a",0,"b",2,721.884000011923,0,"0b2"
33,21,45,2,"b",2,0,"b",2,"b",2,1180.37700000894,0,"2b2"
34,21,1,2,"b",2,NA,NA,NA,NA,NA,2286.46800001193,0,"2b2"
34,21,2,2,"b",2,2,"b",2,"b",2,1152.06200001192,0,"2b2"
34,21,3,2,"a",3,2,"b",2,"a",3,2476.03600001193,0,"2a3"
34,21,4,3,"b",3,2,"a",3,"b",3,1161.70300000596,0,"3b3"
34,21,5,3,"a",1,3,"b",3,"a",1,2596.75700001192,0,"3a1"
34,21,6,1,"b",0,3,"a",1,"b",0,896.323000000004,0,"1b0"
34,21,7,0,"a",2,1,"b",0,"a",2,1269.859,0,"0a2"
34,21,8,2,"b",2,0,"a",2,"b",2,1883.23400001191,0,"2b2"
34,21,9,2,"b",2,2,"b",2,"b",2,1388.07100000596,0,"2b2"
34,21,10,2,"a",0,2,"b",2,"a",0,322.884000011923,0,"2a0"
34,21,11,0,"a",2,2,"a",0,"a",2,348.158000011914,0,"0a2"
34,21,12,2,"b",2,0,"a",2,"b",2,293.789000005956,1,"2b2"
34,21,13,2,"b",2,2,"b",2,"b",2,370.550000008938,0,"2b2"
34,21,14,2,"a",3,2,"b",2,"a",3,275.88300001192,1,"2a3"
34,21,15,3,"b",3,2,"a",3,"b",3,178.974000002985,1,"3b3"
34,21,16,3,"b",3,3,"b",3,"b",3,462.611000008939,0,"3b3"
34,21,17,3,"b",3,3,"b",3,"b",3,200.330000002985,1,"3b3"
34,21,18,3,"a",1,3,"b",3,"a",1,2250.62,0,"3a1"
34,21,19,1,"b",0,3,"a",1,"b",0,669.858000008942,0,"1b0"
34,21,20,0,"b",2,1,"b",0,"b",2,243.471000002974,1,"0b2"
34,21,21,2,"a",0,0,"b",2,"a",0,139.329000008947,1,"2a0"
34,21,22,0,"a",2,2,"a",0,"a",2,224.453999999998,1,"0a2"
34,21,23,2,"b",2,0,"a",2,"b",2,471.624000002979,0,"2b2"
34,21,24,2,"b",2,2,"b",2,"b",2,1018.65600000894,0,"2b2"
34,21,25,2,"a",0,2,"b",2,"a",0,1148.12,0,"2a0"
34,21,26,0,"b",2,2,"a",0,"b",2,169.728000011921,1,"0b2"
34,21,27,2,"b",2,0,"b",2,"b",2,211.383000008937,1,"2b2"
34,21,28,2,"b",2,2,"b",2,"b",2,458.693000008934,0,"2b2"
34,21,29,2,"a",0,2,"b",2,"a",0,3590.44400000299,0,"2a0"
34,21,30,0,"a",2,2,"a",0,"a",2,2407.15700000894,0,"0a2"
34,21,31,2,"a",3,0,"a",2,"a",3,636.342000011908,0,"2a3"
34,21,32,3,"a",0,2,"a",3,"a",0,363.546000008937,0,"3a0"
34,21,33,0,"b",2,3,"a",0,"b",2,367.155999999988,0,"0b2"
34,21,34,2,"b",2,0,"b",2,"b",2,1148.50200000894,0,"2b2"
34,21,35,2,"b",2,2,"b",2,"b",2,418.159000005951,0,"2b2"
34,21,36,2,"b",2,2,"b",2,"b",2,778.059000008943,0,"2b2"
34,21,37,2,"b",2,2,"b",2,"b",2,1021.68600001192,0,"2b2"
34,21,38,2,"a",3,2,"b",2,"a",3,144.089000008942,1,"2a3"
34,21,39,3,"a",1,2,"a",3,"a",1,322.027000008937,0,"3a1"
34,21,40,1,"a",0,3,"a",1,"a",0,525.649999999994,0,"1a0"
34,21,41,0,"a",2,1,"a",0,"a",2,242.611999999994,1,"0a2"
34,21,42,2,"a",0,0,"a",2,"a",0,373.580000008951,0,"2a0"
34,21,43,0,"a",2,2,"a",0,"a",2,308.641999999993,0,"0a2"
34,21,44,2,"b",2,0,"a",2,"b",2,660.230000011914,0,"2b2"
34,21,45,2,"a",0,2,"b",2,"a",0,239.783000011928,1,"2a0"
35,22,1,1,"a",1,NA,NA,NA,NA,NA,1488.239,0,"1a1"
35,22,2,1,"a",0,1,"a",1,"a",0,738.44500000056,0,"1a0"
35,22,3,0,"a",3,1,"a",0,"a",3,888.48900000038,0,"0a3"
35,22,4,3,"a",2,0,"a",3,"a",2,771.939000000566,0,"3a2"
35,22,5,2,"a",2,3,"a",2,"a",2,1105.48300000037,0,"2a2"
35,22,6,2,"a",2,2,"a",2,"a",2,988.222000000373,0,"2a2"
35,22,7,2,"a",2,2,"a",2,"a",2,1705.10200000019,0,"2a2"
35,22,8,2,"b",1,2,"a",2,"b",1,1221.97799999981,0,"2b1"
35,22,9,1,"b",3,2,"b",1,"b",3,888.668000000369,0,"1b3"
35,22,10,3,"b",2,1,"b",3,"b",2,1922.04400000018,0,"3b2"
35,22,11,2,"b",0,3,"b",2,"b",0,1304.96100000037,0,"2b0"
35,22,12,0,"b",3,2,"b",0,"b",3,805.18700000018,0,"0b3"
35,22,13,3,"a",0,0,"b",3,"a",0,4471.92700000019,0,"3a0"
35,22,14,0,"b",3,3,"a",0,"b",3,1322.14700000019,0,"0b3"
35,22,15,3,"a",2,0,"b",3,"a",2,2605.12099999981,0,"3a2"
35,22,16,2,"a",2,3,"a",2,"a",2,3805.39900000056,0,"2a2"
35,22,17,2,"b",1,2,"a",2,"b",1,1455.55900000039,0,"2b1"
35,22,18,1,"a",1,2,"b",1,"a",1,1438.34500000038,0,"1a1"
35,22,19,1,"b",1,1,"a",1,"b",1,1438.47700000057,0,"1b1"
35,22,20,1,"b",1,1,"b",1,"b",1,1821.97500000001,0,"1b1"
35,22,21,1,"b",1,1,"b",1,"b",1,1805.38899999982,0,"1b1"
35,22,22,1,"a",0,1,"b",1,"a",0,1505.15600000057,0,"1a0"
35,22,23,0,"b",3,1,"a",0,"b",3,2971.98999999999,0,"0b3"
35,22,24,3,"b",3,0,"b",3,"b",3,672.149999999994,0,"3b3"
35,22,25,3,"b",2,3,"b",3,"b",2,988.328000000562,0,"3b2"
35,22,26,2,"b",0,3,"b",2,"b",0,705.042000000365,0,"2b0"
35,22,27,0,"a",3,2,"b",0,"a",3,2855.17799999981,0,"0a3"
35,22,28,3,"a",2,0,"a",3,"a",2,888.665999999823,0,"3a2"
35,22,29,2,"b",1,3,"a",2,"b",1,7388.77600000001,0,"2b1"
35,22,30,1,"a",1,2,"b",1,"a",1,955.353000000381,0,"1a1"
35,22,31,1,"b",3,1,"a",1,"b",3,1205.49899999981,0,"1b3"
35,22,32,3,"a",0,1,"b",3,"a",0,1055.01800000036,0,"3a0"
35,22,33,0,"b",3,3,"a",0,"b",3,1605.2340000002,0,"0b3"
35,22,34,3,"a",2,0,"b",3,"a",2,1021.97200000001,0,"3a2"
35,22,35,2,"a",2,3,"a",2,"a",2,1588.75400000019,0,"2a2"
35,22,36,2,"a",2,2,"a",2,"a",2,721.794999999809,0,"2a2"
35,22,37,2,"a",2,2,"a",2,"a",2,1155.13100000037,0,"2a2"
35,22,38,2,"a",2,2,"a",2,"a",2,1088.6189999998,0,"2a2"
35,22,39,2,"a",2,2,"a",2,"a",2,1455.33700000055,0,"2a2"
35,22,40,2,"a",2,2,"a",2,"a",2,1505.46899999981,0,"2a2"
35,22,41,2,"b",0,2,"a",2,"b",0,2404.98600000056,0,"2b0"
35,22,42,0,"a",3,2,"b",0,"a",3,1521.69,0,"0a3"
35,22,43,3,"b",3,0,"a",3,"b",3,1988.75799999983,0,"3b3"
35,22,44,3,"a",0,3,"b",3,"a",0,2288.71199999982,0,"3a0"
35,22,45,0,"a",3,3,"a",0,"a",3,2022.27800000037,0,"0a3"
36,22,1,3,"a",2,NA,NA,NA,NA,NA,2701.69899990463,0,"3a2"
36,22,2,2,"b",0,3,"a",2,"b",0,6248.51199997615,0,"2b0"
36,22,3,0,"b",3,2,"b",0,"b",3,2042.77799990465,0,"0b3"
36,22,4,3,"b",2,0,"b",3,"b",2,1069.40199990463,0,"3b2"
36,22,5,2,"a",2,3,"b",2,"a",2,2030.54599995233,0,"2a2"
36,22,6,2,"a",2,2,"a",2,"a",2,750.163999928482,0,"2a2"
36,22,7,2,"a",2,2,"a",2,"a",2,980.740999952308,0,"2a2"
36,22,8,2,"b",1,2,"a",2,"b",1,1353.90499997616,0,"2b1"
36,22,9,1,"b",3,2,"b",1,"b",3,1231.65599990464,0,"1b3"
36,22,10,3,"b",3,1,"b",3,"b",3,1036.31699990464,0,"3b3"
36,22,11,3,"b",2,3,"b",3,"b",2,865.896999952325,0,"3b2"
36,22,12,2,"b",1,3,"b",2,"b",1,916.739999952319,0,"2b1"
36,22,13,1,"a",1,2,"b",1,"a",1,1276.91599990462,0,"1a1"
36,22,14,1,"a",1,1,"a",1,"a",1,382.930999904638,0,"1a1"
36,22,15,1,"a",0,1,"a",1,"a",0,492.37299995232,0,"1a0"
36,22,16,0,"a",3,1,"a",0,"a",3,764.485999976168,0,"0a3"
36,22,17,3,"a",2,0,"a",3,"a",2,869.759999904636,0,"3a2"
36,22,18,2,"a",2,3,"a",2,"a",2,1096.576,0,"2a2"
36,22,19,2,"a",2,2,"a",2,"a",2,481.763000000006,0,"2a2"
36,22,20,2,"a",2,2,"a",2,"a",2,491.210999952309,0,"2a2"
36,22,21,2,"a",2,2,"a",2,"a",2,876.122999999992,0,"2a2"
36,22,22,2,"a",2,2,"a",2,"a",2,616.299999952316,0,"2a2"
36,22,23,2,"b",1,2,"a",2,"b",1,996.991999928461,0,"2b1"
36,22,24,1,"b",1,2,"b",1,"b",1,675.690000000002,0,"1b1"
36,22,25,1,"b",1,1,"b",1,"b",1,573.325999928464,0,"1b1"
36,22,26,1,"b",3,1,"b",1,"b",3,699.693999904644,0,"1b3"
36,22,27,3,"b",3,1,"b",3,"b",3,973.059999976162,0,"3b3"
36,22,28,3,"b",2,3,"b",3,"b",2,707.917999904632,0,"3b2"
36,22,29,2,"a",2,3,"b",2,"a",2,1377.12999990463,0,"2a2"
36,22,30,2,"b",0,2,"a",2,"b",0,568.542999952304,0,"2b0"
36,22,31,0,"a",3,2,"b",0,"a",3,878.754999904631,0,"0a3"
36,22,32,3,"b",2,0,"a",3,"b",2,736.424999904644,0,"3b2"
36,22,33,2,"a",2,3,"b",2,"a",2,855.824999904638,0,"2a2"
36,22,34,2,"b",0,2,"a",2,"b",0,1242.17099990463,0,"2b0"
36,22,35,0,"a",3,2,"b",0,"a",3,1350.33899997617,0,"0a3"
36,22,36,3,"b",3,0,"a",3,"b",3,2652.43299990465,0,"3b3"
36,22,37,3,"b",3,3,"b",3,"b",3,777.729999904637,0,"3b3"
36,22,38,3,"b",2,3,"b",3,"b",2,480.771000000008,0,"3b2"
36,22,39,2,"a",2,3,"b",2,"a",2,2577.55299997615,0,"2a2"
36,22,40,2,"a",2,2,"a",2,"a",2,682.882000000012,0,"2a2"
36,22,41,2,"b",1,2,"a",2,"b",1,493.866000000009,0,"2b1"
36,22,42,1,"b",1,2,"b",1,"b",1,671.101999976148,0,"1b1"
36,22,43,1,"b",1,1,"b",1,"b",1,553.325999904628,0,"1b1"
36,22,44,1,"b",1,1,"b",1,"b",1,591.94899990462,0,"1b1"
36,22,45,1,"b",3,1,"b",1,"b",3,670.872999904619,0,"1b3"
37,22,1,2,"a",2,NA,NA,NA,NA,NA,4547.308,0,"2a2"
37,22,2,2,"b",1,2,"a",2,"b",1,1068.13799999995,0,"2b1"
37,22,3,1,"a",1,2,"b",1,"a",1,3936.443,0,"1a1"
37,22,4,1,"a",1,1,"a",1,"a",1,2335.9979999999,0,"1a1"
37,22,5,1,"b",1,1,"a",1,"b",1,604.987999999954,0,"1b1"
37,22,6,1,"a",0,1,"b",1,"a",0,2903.61599999995,0,"1a0"
37,22,7,0,"a",3,1,"a",0,"a",3,3445.42099999986,0,"0a3"
37,22,8,3,"b",2,0,"a",3,"b",2,1885.41100000005,0,"3b2"
37,22,9,2,"a",2,3,"b",2,"a",2,3565.46500000004,0,"2a2"
37,22,10,2,"a",2,2,"a",2,"a",2,2945.885,0,"2a2"
37,22,11,2,"b",1,2,"a",2,"b",1,1107.43999999986,0,"2b1"
37,22,12,1,"a",0,2,"b",1,"a",0,15006.155,0,"1a0"
37,22,13,0,"a",3,1,"a",0,"a",3,15004.773,0,"0a3"
37,22,14,3,"a",2,0,"a",3,"a",2,6168.7269999999,0,"3a2"
37,22,15,2,"a",2,3,"a",2,"a",2,1827.61199999991,0,"2a2"
37,22,16,2,"a",2,2,"a",2,"a",2,449.545000000042,0,"2a2"
37,22,17,2,"a",2,2,"a",2,"a",2,509.440000000061,0,"2a2"
37,22,18,2,"a",2,2,"a",2,"a",2,2260.22500000001,0,"2a2"
37,22,19,2,"b",0,2,"a",2,"b",0,1606.63499999986,0,"2b0"
37,22,20,0,"b",3,2,"b",0,"b",3,2037.89000000001,0,"0b3"
37,22,21,3,"b",3,0,"b",3,"b",3,501.515000000043,0,"3b3"
37,22,22,3,"b",2,3,"b",3,"b",2,812.954999999987,0,"3b2"
37,22,23,2,"a",2,3,"b",2,"a",2,4776.84999999986,0,"2a2"
37,22,24,2,"a",2,2,"a",2,"a",2,2228.36399999991,0,"2a2"
37,22,25,2,"a",2,2,"a",2,"a",2,863.783999999956,0,"2a2"
37,22,26,2,"b",0,2,"a",2,"b",0,468.458999999944,0,"2b0"
37,22,27,0,"b",3,2,"b",0,"b",3,11467.6090000001,0,"0b3"
37,22,28,3,"b",2,0,"b",3,"b",2,1502.02999999985,0,"3b2"
37,22,29,2,"b",1,3,"b",2,"b",1,1096.67000000004,0,"2b1"
37,22,30,1,"b",1,2,"b",1,"b",1,2633.83000000005,0,"1b1"
37,22,31,1,"b",3,1,"b",1,"b",3,456.474999999948,0,"1b3"
37,22,32,3,"b",3,1,"b",3,"b",3,420.924999999872,0,"3b3"
37,22,33,3,"a",2,3,"b",3,"a",2,138.506999999954,1,"3a2"
37,22,34,2,"a",2,3,"a",2,"a",2,1455.55699999986,0,"2a2"
37,22,35,2,"b",1,2,"a",2,"b",1,379.806999999855,0,"2b1"
37,22,36,1,"a",1,2,"b",1,"a",1,4776.43199999991,0,"1a1"
37,22,37,1,"a",1,1,"a",1,"a",1,1903.3059999999,0,"1a1"
37,22,38,1,"b",3,1,"a",1,"b",3,1979.82599999994,0,"1b3"
37,22,39,3,"b",2,1,"b",3,"b",2,687.27099999995,0,"3b2"
37,22,40,2,"b",0,3,"b",2,"b",0,992.650999999954,0,"2b0"
37,22,41,0,"b",3,2,"b",0,"b",3,593.640999999858,0,"0b3"
37,22,42,3,"b",2,0,"b",3,"b",2,540.057999999874,0,"3b2"
37,22,43,2,"b",1,3,"b",2,"b",1,606.332999999868,0,"2b1"
37,22,44,1,"b",1,2,"b",1,"b",1,639.487999999867,0,"1b1"
37,22,45,1,"b",3,1,"b",1,"b",3,468.277999999962,0,"1b3"
38,22,1,1,"a",1,NA,NA,NA,NA,NA,1422.70599999776,0,"1a1"
38,22,2,1,"b",1,1,"a",1,"b",1,1536.541,0,"1b1"
38,22,3,1,"b",3,1,"b",1,"b",3,2653.71599999776,0,"1b3"
38,22,4,3,"b",2,1,"b",3,"b",2,2255.40299999925,0,"3b2"
38,22,5,2,"a",2,3,"b",2,"a",2,2162.52899999925,0,"2a2"
38,22,6,2,"a",2,2,"a",2,"a",2,1123.25500000075,0,"2a2"
38,22,7,2,"a",2,2,"a",2,"a",2,797.043999999252,0,"2a2"
38,22,8,2,"a",2,2,"a",2,"a",2,821.58499999925,0,"2a2"
38,22,9,2,"a",2,2,"a",2,"a",2,829.669999999256,0,"2a2"
38,22,10,2,"a",2,2,"a",2,"a",2,1964.707,0,"2a2"
38,22,11,2,"b",0,2,"a",2,"b",0,614.988999998517,0,"2b0"
38,22,12,0,"b",3,2,"b",0,"b",3,1252.37900000074,0,"0b3"
38,22,13,3,"b",2,0,"b",3,"b",2,895.315999997765,0,"3b2"
38,22,14,2,"b",1,3,"b",2,"b",1,892.244999998511,0,"2b1"
38,22,15,1,"b",1,2,"b",1,"b",1,796.23899999776,0,"1b1"
38,22,16,1,"b",1,1,"b",1,"b",1,2709.47700000074,0,"1b1"
38,22,17,1,"a",0,1,"b",1,"a",0,2585.103,0,"1a0"
38,22,18,0,"b",3,1,"a",0,"b",3,927.033000000738,0,"0b3"
38,22,19,3,"a",0,0,"b",3,"a",0,837.374000000738,0,"3a0"
38,22,20,0,"b",3,3,"a",0,"b",3,1447.10700000075,0,"0b3"
38,22,21,3,"a",2,0,"b",3,"a",2,912.896999998513,0,"3a2"
38,22,22,2,"b",0,3,"a",2,"b",0,5471.37799999776,0,"2b0"
38,22,23,0,"a",3,2,"b",0,"a",3,743.638999999996,0,"0a3"
38,22,24,3,"a",0,0,"a",3,"a",0,542.777999999991,0,"3a0"
38,22,25,0,"a",3,3,"a",0,"a",3,582.066999999253,0,"0a3"
38,22,26,3,"a",2,0,"a",3,"a",2,919.706000000006,0,"3a2"
38,22,27,2,"a",2,3,"a",2,"a",2,1568.34400000074,0,"2a2"
38,22,28,2,"b",1,2,"a",2,"b",1,1526.43199999924,0,"2b1"
38,22,29,1,"b",3,2,"b",1,"b",3,607.162999999244,0,"1b3"
38,22,30,3,"a",2,1,"b",3,"a",2,1895.90399999925,0,"3a2"
38,22,31,2,"a",2,3,"a",2,"a",2,2691.38199999926,0,"2a2"
38,22,32,2,"a",2,2,"a",2,"a",2,661.760000000009,0,"2a2"
38,22,33,2,"a",2,2,"a",2,"a",2,1004.59699999777,0,"2a2"
38,22,34,2,"b",1,2,"a",2,"b",1,1681.33299999777,0,"2b1"
38,22,35,1,"a",0,2,"b",1,"a",0,3449.0749999985,0,"1a0"
38,22,36,0,"a",3,1,"a",0,"a",3,2077.49100000001,0,"0a3"
38,22,37,3,"b",3,0,"a",3,"b",3,1211.8709999985,0,"3b3"
38,22,38,3,"a",2,3,"b",3,"a",2,5232.1069999985,0,"3a2"
38,22,39,2,"b",0,3,"a",2,"b",0,3260.77000000075,0,"2b0"
38,22,40,0,"a",3,2,"b",0,"a",3,2445.84499999852,0,"0a3"
38,22,41,3,"a",0,0,"a",3,"a",0,3330.61999999927,0,"3a0"
38,22,42,0,"b",3,3,"a",0,"b",3,104978.902,0,"0b3"
38,22,43,3,"a",0,0,"b",3,"a",0,3444.1729999985,0,"3a0"
38,22,44,0,"a",3,3,"a",0,"a",3,1819.63399999851,0,"0a3"
38,22,45,3,"a",2,0,"a",3,"a",2,988.778000000748,0,"3a2"
39,21,1,0,"b",2,NA,NA,NA,NA,NA,1942.51599999888,0,"0b2"
39,21,2,2,"a",3,0,"b",2,"a",3,1207.18700000037,0,"2a3"
39,21,3,3,"b",3,2,"a",3,"b",3,1728.85299999888,0,"3b3"
39,21,4,3,"b",3,3,"b",3,"b",3,2129.46299999888,0,"3b3"
39,21,5,3,"a",0,3,"b",3,"a",0,1127.84300000037,0,"3a0"
39,21,6,0,"b",2,3,"a",0,"b",2,650.22899999925,0,"0b2"
39,21,7,2,"a",0,0,"b",2,"a",0,493.628999999259,0,"2a0"
39,21,8,0,"a",2,2,"a",0,"a",2,399.022999999259,0,"0a2"
39,21,9,2,"b",2,0,"a",2,"b",2,920.912999999258,0,"2b2"
39,21,10,2,"a",0,2,"b",2,"a",0,1248.99099999925,0,"2a0"
39,21,11,0,"b",2,2,"a",0,"b",2,1388.399,0,"0b2"
39,21,12,2,"b",2,0,"b",2,"b",2,2888.12899999888,0,"2b2"
39,21,13,2,"a",3,2,"b",2,"a",3,320.518999999258,0,"2a3"
39,21,14,3,"b",3,2,"a",3,"b",3,562.539000000004,0,"3b3"
39,21,15,3,"a",1,3,"b",3,"a",1,498.068999998883,0,"3a1"
39,21,16,1,"a",0,3,"a",1,"a",0,727.554000000004,0,"1a0"
39,21,17,0,"a",2,1,"a",0,"a",2,576.223999999624,0,"0a2"
39,21,18,2,"b",2,0,"a",2,"b",2,899.588000000367,0,"2b2"
39,21,19,2,"b",2,2,"b",2,"b",2,646.597999999998,0,"2b2"
39,21,20,2,"b",2,2,"b",2,"b",2,668.197999999262,0,"2b2"
39,21,21,2,"b",2,2,"b",2,"b",2,632.632000000376,0,"2b2"
39,21,22,2,"b",2,2,"b",2,"b",2,686.49799999925,0,"2b2"
39,21,23,2,"a",0,2,"b",2,"a",0,691.06599999925,0,"2a0"
39,21,24,0,"a",2,2,"a",0,"a",2,815.867999999624,0,"0a2"
39,21,25,2,"b",2,0,"a",2,"b",2,533.307999998884,0,"2b2"
39,21,26,2,"a",3,2,"b",2,"a",3,760.070000000007,0,"2a3"
39,21,27,3,"a",1,2,"a",3,"a",1,682.089999999997,0,"3a1"
39,21,28,1,"b",0,3,"a",1,"b",0,386.757999999623,0,"1b0"
39,21,29,0,"a",2,1,"b",0,"a",2,441.51399999889,0,"0a2"
39,21,30,2,"a",0,0,"a",2,"a",0,453.506000000372,0,"2a0"
39,21,31,0,"a",2,2,"a",0,"a",2,407.797999998889,0,"0a2"
39,21,32,2,"a",0,0,"a",2,"a",0,461.321999999622,0,"2a0"
39,21,33,0,"b",2,2,"a",0,"b",2,440.047999999631,0,"0b2"
39,21,34,2,"b",2,0,"b",2,"b",2,467.476000000373,0,"2b2"
39,21,35,2,"b",2,2,"b",2,"b",2,89.9019999996235,1,"2b2"
39,21,36,2,"a",3,2,"b",2,"a",3,201.179999999993,1,"2a3"
39,21,37,3,"a",0,2,"a",3,"a",0,519.861999998888,0,"3a0"
39,21,38,0,"b",2,3,"a",0,"b",2,569.589999998876,0,"0b2"
39,21,39,2,"a",0,0,"b",2,"a",0,497.619999999632,0,"2a0"
39,21,40,0,"a",2,2,"a",0,"a",2,766.113999999245,0,"0a2"
39,21,41,2,"b",2,0,"a",2,"b",2,679.015999999247,0,"2b2"
39,21,42,2,"b",2,2,"b",2,"b",2,869.183999998873,0,"2b2"
39,21,43,2,"b",2,2,"b",2,"b",2,488.225999999617,0,"2b2"
39,21,44,2,"a",3,2,"b",2,"a",3,708.319999998872,0,"2a3"
39,21,45,3,"a",1,2,"a",3,"a",1,646.555999998876,0,"3a1"
40,21,1,0,"a",2,NA,NA,NA,NA,NA,2320.53700002385,0,"0a2"
40,21,2,2,"a",3,0,"a",2,"a",3,1137.29900002384,0,"2a3"
40,21,3,3,"a",1,2,"a",3,"a",1,1235.75200002384,0,"3a1"
40,21,4,1,"a",0,3,"a",1,"a",0,1141.681,0,"1a0"
40,21,5,0,"a",2,1,"a",0,"a",2,3783.40400002385,0,"0a2"
40,21,6,2,"a",0,0,"a",2,"a",0,1537.541,0,"2a0"
40,21,7,0,"a",2,2,"a",0,"a",2,1417.323,0,"0a2"
40,21,8,2,"a",0,0,"a",2,"a",0,1542.50400002385,0,"2a0"
40,21,9,0,"a",2,2,"a",0,"a",2,1117.78600002383,0,"0a2"
40,21,10,2,"a",0,0,"a",2,"a",0,716.743000023853,0,"2a0"
40,21,11,0,"b",2,2,"a",0,"b",2,607.007999976166,0,"0b2"
40,21,12,2,"b",2,0,"b",2,"b",2,1083.44199992847,0,"2b2"
40,21,13,2,"b",2,2,"b",2,"b",2,795.345999952318,0,"2b2"
40,21,14,2,"b",2,2,"b",2,"b",2,847.943000023835,0,"2b2"
40,21,15,2,"a",3,2,"b",2,"a",3,1099.53899997615,0,"2a3"
40,21,16,3,"b",3,2,"a",3,"b",3,4476.76300000001,0,"3b3"
40,21,17,3,"a",1,3,"b",3,"a",1,1611.47999997615,0,"3a1"
40,21,18,1,"b",0,3,"a",1,"b",0,2016.59399997615,0,"1b0"
40,21,19,0,"b",2,1,"b",0,"b",2,1969.43299995232,0,"0b2"
40,21,20,2,"b",2,0,"b",2,"b",2,1063.47299997616,0,"2b2"
40,21,21,2,"b",2,2,"b",2,"b",2,644.409999928466,0,"2b2"
40,21,22,2,"b",2,2,"b",2,"b",2,783.010000000009,0,"2b2"
40,21,23,2,"b",2,2,"b",2,"b",2,659.206999976159,0,"2b2"
40,21,24,2,"a",0,2,"b",2,"a",0,744.83999997616,0,"2a0"
40,21,25,0,"a",2,2,"a",0,"a",2,999.570999999996,0,"0a2"
40,21,26,2,"a",0,0,"a",2,"a",0,932.364000000001,0,"2a0"
40,21,27,0,"a",2,2,"a",0,"a",2,1051.42299992847,0,"0a2"
40,21,28,2,"a",3,0,"a",2,"a",3,849.747999976156,0,"2a3"
40,21,29,3,"a",0,2,"a",3,"a",0,1357.94399995232,0,"3a0"
40,21,30,0,"a",2,3,"a",0,"a",2,1706.76300000001,0,"0a2"
40,21,31,2,"a",0,0,"a",2,"a",0,1155.47500002384,0,"2a0"
40,21,32,0,"b",2,2,"a",0,"b",2,676.270999928471,0,"0b2"
40,21,33,2,"b",2,0,"b",2,"b",2,1078.43699997617,0,"2b2"
40,21,34,2,"b",2,2,"b",2,"b",2,1288.995,0,"2b2"
40,21,35,2,"b",2,2,"b",2,"b",2,1378.88200002385,0,"2b2"
40,21,36,2,"b",2,2,"b",2,"b",2,647.533999952313,0,"2b2"
40,21,37,2,"b",2,2,"b",2,"b",2,556.597999928461,0,"2b2"
40,21,38,2,"a",3,2,"b",2,"a",3,930.73299992847,0,"2a3"
40,21,39,3,"a",0,2,"a",3,"a",0,901.793999952322,0,"3a0"
40,21,40,0,"a",2,3,"a",0,"a",2,1238.72200002384,0,"0a2"
40,21,41,2,"b",2,0,"a",2,"b",2,508.410000000003,0,"2b2"
40,21,42,2,"a",3,2,"b",2,"a",3,731.94599997616,0,"2a3"
40,21,43,3,"b",3,2,"a",3,"b",3,1423.85299995233,0,"3b3"
40,21,44,3,"b",3,3,"b",3,"b",3,2631.90399997614,0,"3b3"
40,21,45,3,"b",3,3,"b",3,"b",3,1737.13099992849,0,"3b3"
41,21,1,3,"b",3,NA,NA,NA,NA,NA,2767.21500000596,0,"3b3"
41,21,2,3,"b",3,3,"b",3,"b",3,2100.71700001192,0,"3b3"
41,21,3,3,"a",1,3,"b",3,"a",1,2116.45600000894,0,"3a1"
41,21,4,1,"a",0,3,"a",1,"a",0,2393.977,0,"1a0"
41,21,5,0,"b",2,1,"a",0,"b",2,2007.61300000895,0,"0b2"
41,21,6,2,"b",2,0,"b",2,"b",2,12503.957,0,"2b2"
41,21,7,2,"a",3,2,"b",2,"a",3,1298.59000000298,0,"2a3"
41,21,8,3,"b",3,2,"a",3,"b",3,1753.19100000596,0,"3b3"
41,21,9,3,"a",0,3,"b",3,"a",0,992.524000005957,0,"3a0"
41,21,10,0,"b",2,3,"a",0,"b",2,1213.879,0,"0b2"
41,21,11,2,"b",2,0,"b",2,"b",2,1001.66800000297,0,"2b2"
41,21,12,2,"b",2,2,"b",2,"b",2,731.123000002975,0,"2b2"
41,21,13,2,"b",2,2,"b",2,"b",2,1148.81500000299,0,"2b2"
41,21,14,2,"a",3,2,"b",2,"a",3,467.805000008942,0,"2a3"
41,21,15,3,"a",1,2,"a",3,"a",1,668.402000008937,0,"3a1"
41,21,16,1,"a",0,3,"a",1,"a",0,581.516000000003,0,"1a0"
41,21,17,0,"a",2,1,"a",0,"a",2,579.856,0,"0a2"
41,21,18,2,"b",2,0,"a",2,"b",2,792.583000005965,0,"2b2"
41,21,19,2,"a",0,2,"b",2,"a",0,868.635000011927,0,"2a0"
41,21,20,0,"a",2,2,"a",0,"a",2,476.609000011915,0,"0a2"
41,21,21,2,"a",0,0,"a",2,"a",0,398.076000011919,0,"2a0"
41,21,22,0,"a",2,2,"a",0,"a",2,746.415000011926,0,"0a2"
41,21,23,2,"a",0,0,"a",2,"a",0,642.404000011928,0,"2a0"
41,21,24,0,"b",2,2,"a",0,"b",2,830.528000008941,0,"0b2"
41,21,25,2,"b",2,0,"b",2,"b",2,721.054000008939,0,"2b2"
41,21,26,2,"b",2,2,"b",2,"b",2,544.880999999994,0,"2b2"
41,21,27,2,"b",2,2,"b",2,"b",2,565.826000005967,0,"2b2"
41,21,28,2,"b",2,2,"b",2,"b",2,520.224000005954,0,"2b2"
41,21,29,2,"a",3,2,"b",2,"a",3,416.984000005963,0,"2a3"
41,21,30,3,"a",0,2,"a",3,"a",0,521.302000005962,0,"3a0"
41,21,31,0,"a",2,3,"a",0,"a",2,519.460000011924,0,"0a2"
41,21,32,2,"b",2,0,"a",2,"b",2,646.007000011916,0,"2b2"
41,21,33,2,"a",0,2,"b",2,"a",0,655.478999999992,0,"2a0"
41,21,34,0,"a",2,2,"a",0,"a",2,646.572000005952,0,"0a2"
41,21,35,2,"a",3,0,"a",2,"a",3,744.439000000013,0,"2a3"
41,21,36,3,"b",3,2,"a",3,"b",3,423.387000005954,0,"3b3"
41,21,37,3,"b",3,3,"b",3,"b",3,553.106999999989,0,"3b3"
41,21,38,3,"a",1,3,"b",3,"a",1,391.021000002977,0,"3a1"
41,21,39,1,"a",0,3,"a",1,"a",0,438.369000005972,0,"1a0"
41,21,40,0,"b",2,1,"a",0,"b",2,548.311000008951,0,"0b2"
41,21,41,2,"a",0,0,"b",2,"a",0,536.203000011912,0,"2a0"
41,21,42,0,"b",2,2,"a",0,"b",2,647.210000005958,0,"0b2"
41,21,43,2,"a",0,0,"b",2,"a",0,682.626000011922,0,"2a0"
41,21,44,0,"a",2,2,"a",0,"a",2,770.564000011917,0,"0a2"
41,21,45,2,"a",0,0,"a",2,"a",0,591.582000011927,0,"2a0"
42,21,1,3,"a",1,NA,NA,NA,NA,NA,4272.781,0,"3a1"
42,21,2,1,"a",0,3,"a",1,"a",0,3470.30600002385,0,"1a0"
42,21,3,0,"a",2,1,"a",0,"a",2,1261.44900007153,0,"0a2"
42,21,4,2,"a",3,0,"a",2,"a",3,997.905999976152,0,"2a3"
42,21,5,3,"a",1,2,"a",3,"a",1,5252.288,0,"3a1"
42,21,6,1,"a",0,3,"a",1,"a",0,3499.55999997616,0,"1a0"
42,21,7,0,"a",2,1,"a",0,"a",2,6625.62299997616,0,"0a2"
42,21,8,2,"a",0,0,"a",2,"a",0,11102.4310000715,0,"2a0"
42,21,9,0,"a",2,2,"a",0,"a",2,5645.64599997616,0,"0a2"
42,21,10,2,"a",0,0,"a",2,"a",0,6517.29800000001,0,"2a0"
42,21,11,0,"b",2,2,"a",0,"b",2,5883.4870000477,0,"0b2"
42,21,12,2,"b",2,0,"b",2,"b",2,5479.26000002385,0,"2b2"
42,21,13,2,"b",2,2,"b",2,"b",2,12035.4660000715,0,"2b2"
42,21,14,2,"b",2,2,"b",2,"b",2,4940.82100002383,0,"2b2"
42,21,15,2,"b",2,2,"b",2,"b",2,791.20000007152,0,"2b2"
42,21,16,2,"b",2,2,"b",2,"b",2,566.287000071519,0,"2b2"
42,21,17,2,"b",2,2,"b",2,"b",2,1045.114,0,"2b2"
42,21,18,2,"b",2,2,"b",2,"b",2,539.041000023833,0,"2b2"
42,21,19,2,"b",2,2,"b",2,"b",2,555.866999999998,0,"2b2"
42,21,20,2,"b",2,2,"b",2,"b",2,437.981000071537,0,"2b2"
42,21,21,2,"b",2,2,"b",2,"b",2,922.14499999999,0,"2b2"
42,21,22,2,"a",3,2,"b",2,"a",3,2109.05800007153,0,"2a3"
42,21,23,3,"b",3,2,"a",3,"b",3,12715.7050000715,0,"3b3"
42,21,24,3,"b",3,3,"b",3,"b",3,2813.68900002385,0,"3b3"
42,21,25,3,"b",3,3,"b",3,"b",3,510.768000071519,0,"3b3"
42,21,26,3,"b",3,3,"b",3,"b",3,468.630000047677,0,"3b3"
42,21,27,3,"a",0,3,"b",3,"a",0,2975.51200002385,0,"3a0"
42,21,28,0,"b",2,3,"a",0,"b",2,1698.98000000001,0,"0b2"
42,21,29,2,"b",2,0,"b",2,"b",2,5663.97799997617,0,"2b2"
42,21,30,2,"b",2,2,"b",2,"b",2,516.722000000009,0,"2b2"
42,21,31,2,"b",2,2,"b",2,"b",2,387.010000047681,0,"2b2"
42,21,32,2,"a",0,2,"b",2,"a",0,1597.04199997615,0,"2a0"
42,21,33,0,"b",2,2,"a",0,"b",2,1388.02900000001,0,"0b2"
42,21,34,2,"b",2,0,"b",2,"b",2,915.094000047684,0,"2b2"
42,21,35,2,"b",2,2,"b",2,"b",2,526.877999999997,0,"2b2"
42,21,36,2,"b",2,2,"b",2,"b",2,567.566000023828,0,"2b2"
42,21,37,2,"a",3,2,"b",2,"a",3,866.328000047681,0,"2a3"
42,21,38,3,"a",0,2,"a",3,"a",0,1029.25599997616,0,"3a0"
42,21,39,0,"a",2,3,"a",0,"a",2,855.296000023838,0,"0a2"
42,21,40,2,"b",2,0,"a",2,"b",2,773.581000023842,0,"2b2"
42,21,41,2,"a",0,2,"b",2,"a",0,691.454000071535,0,"2a0"
42,21,42,0,"a",2,2,"a",0,"a",2,680.609999999986,0,"0a2"
42,21,43,2,"b",2,0,"a",2,"b",2,712.073000000004,0,"2b2"
42,21,44,2,"a",0,2,"b",2,"a",0,562.302000023832,0,"2a0"
42,21,45,0,"b",2,2,"a",0,"b",2,1625.22800007154,0,"0b2"
43,21,1,1,"a",0,NA,NA,NA,NA,NA,2271.17099980927,0,"1a0"
43,21,2,0,"a",2,1,"a",0,"a",2,1152.67499990463,0,"0a2"
43,21,3,2,"a",3,0,"a",2,"a",3,1166.651,0,"2a3"
43,21,4,3,"a",0,2,"a",3,"a",0,1026.372,0,"3a0"
43,21,5,0,"a",2,3,"a",0,"a",2,885.088999904634,0,"0a2"
43,21,6,2,"a",0,0,"a",2,"a",0,553.775999999998,0,"2a0"
43,21,7,0,"a",2,2,"a",0,"a",2,742.180999809265,0,"0a2"
43,21,8,2,"b",2,0,"a",2,"b",2,710.863999856956,0,"2b2"
43,21,9,2,"b",2,2,"b",2,"b",2,439.120999999999,0,"2b2"
43,21,10,2,"b",2,2,"b",2,"b",2,549.576999856945,0,"2b2"
43,21,11,2,"b",2,2,"b",2,"b",2,401.475999904636,0,"2b2"
43,21,12,2,"b",2,2,"b",2,"b",2,328.17299985695,0,"2b2"
43,21,13,2,"b",2,2,"b",2,"b",2,300.680999999997,0,"2b2"
43,21,14,2,"a",0,2,"b",2,"a",0,379.849999904633,0,"2a0"
43,21,15,0,"a",2,2,"a",0,"a",2,706.820000000007,0,"0a2"
43,21,16,2,"a",3,0,"a",2,"a",3,770.280999952316,0,"2a3"
43,21,17,3,"a",1,2,"a",3,"a",1,622.211999856954,0,"3a1"
43,21,18,1,"a",0,3,"a",1,"a",0,728.520999809261,0,"1a0"
43,21,19,0,"a",2,1,"a",0,"a",2,584.956999952323,0,"0a2"
