participant_id,fsm_number,fsm_type,test_condition,learning_condition,trial_number,trial_type,state_1,response_1,state_2,response_2,state_3,option_1,option_2,correctResponse,response,response_correct,response_time
4,22.0,hard,explanation,Experiment 1 (no preview),1,visible,0.0,a,3.0,a,0.0,,,2.0,2,1.0,7670.377000011911
4,22.0,hard,explanation,Experiment 1 (no preview),2,visible,3.0,b,2.0,b,0.0,,,2.0,2,1.0,3143.978000047675
4,22.0,hard,explanation,Experiment 1 (no preview),3,hidden,2.0,a,,b,1.0,,,2.0,2,1.0,3491.4580000238493
4,22.0,hard,explanation,Experiment 1 (no preview),4,visible,1.0,a,0.0,a,3.0,,,1.0,1,1.0,3009.846000035759
4,22.0,hard,explanation,Experiment 1 (no preview),5,visible,2.0,b,1.0,b,1.0,,,1.0,2,0.0,2514.344999999972
4,22.0,hard,explanation,Experiment 1 (no preview),6,hidden,2.0,b,,a,1.0,,,1.0,1,1.0,2183.907000011939
4,22.0,hard,explanation,Experiment 1 (no preview),7,hidden,2.0,b,,b,3.0,,,1.0,2,0.0,1154.1480000357842
4,22.0,hard,explanation,Experiment 1 (no preview),8,hidden,3.0,b,,b,3.0,,,2.0,2,1.0,1028.3489999999874
4,22.0,hard,explanation,Experiment 1 (no preview),9,visible,3.0,a,0.0,b,3.0,,,1.0,2,0.0,2900.099000023853
4,22.0,hard,explanation,Experiment 1 (no preview),10,visible,0.0,b,3.0,b,3.0,,,2.0,2,1.0,952.3549999999814
4,22.0,hard,explanation,Experiment 1 (no preview),11,visible,2.0,b,1.0,a,1.0,,,1.0,2,0.0,5623.065999999992
4,22.0,hard,explanation,Experiment 1 (no preview),12,hidden,3.0,b,,a,2.0,,,2.0,2,1.0,1062.2750000118976
4,22.0,hard,explanation,Experiment 1 (no preview),13,hidden,1.0,b,,a,2.0,,,1.0,2,0.0,1050.8210000476683
4,22.0,hard,explanation,Experiment 1 (no preview),14,visible,3.0,b,2.0,a,2.0,,,2.0,1,0.0,3832.3700000476674
4,22.0,hard,explanation,Experiment 1 (no preview),15,hidden,0.0,a,,a,0.0,,,2.0,2,1.0,468.5520000357647
4,22.0,hard,explanation,Experiment 1 (no preview),16,hidden,1.0,a,,a,0.0,,,2.0,2,1.0,2712.7850000477047
4,22.0,hard,explanation,Experiment 1 (no preview),17,visible,1.0,b,3.0,a,2.0,,,1.0,2,0.0,845.6140000357409
4,22.0,hard,explanation,Experiment 1 (no preview),18,hidden,3.0,a,,a,3.0,,,1.0,1,1.0,1581.5190000477014
4,22.0,hard,explanation,Experiment 1 (no preview),19,visible,3.0,a,2.0,b,1.0,,,2.0,2,1.0,775.3209999999963
4,22.0,hard,explanation,Experiment 1 (no preview),20,hidden,1.0,b,,b,2.0,,,1.0,2,0.0,899.8730000118958
9,22.0,hard,explanation,Experiment 1 (no preview),1,hidden,3.0,b,,a,2.0,,,2.0,2,1.0,7610.619999982126
9,22.0,hard,explanation,Experiment 1 (no preview),2,visible,1.0,a,0.0,a,3.0,,,1.0,2,0.0,5031.719999994035
9,22.0,hard,explanation,Experiment 1 (no preview),3,visible,2.0,b,1.0,b,1.0,,,1.0,2,0.0,451.9950000059616
9,22.0,hard,explanation,Experiment 1 (no preview),4,visible,0.0,b,3.0,b,3.0,,,2.0,2,1.0,3161.0389999999898
9,22.0,hard,explanation,Experiment 1 (no preview),5,hidden,1.0,a,,a,0.0,,,2.0,2,1.0,525.714999988093
9,22.0,hard,explanation,Experiment 1 (no preview),6,visible,3.0,a,2.0,b,1.0,,,2.0,2,1.0,396.42699999402976
9,22.0,hard,explanation,Experiment 1 (no preview),7,hidden,3.0,b,,b,3.0,,,2.0,2,1.0,374.73300000000745
9,22.0,hard,explanation,Experiment 1 (no preview),8,hidden,0.0,a,,a,0.0,,,2.0,2,1.0,371.3579999880749
9,22.0,hard,explanation,Experiment 1 (no preview),9,visible,3.0,a,0.0,b,3.0,,,1.0,2,0.0,375.4739999940503
9,22.0,hard,explanation,Experiment 1 (no preview),10,hidden,2.0,b,,a,1.0,,,1.0,2,0.0,395.0429999940389
9,22.0,hard,explanation,Experiment 1 (no preview),11,hidden,1.0,b,,a,2.0,,,1.0,2,0.0,537.8309999940393
9,22.0,hard,explanation,Experiment 1 (no preview),12,hidden,2.0,b,,b,3.0,,,1.0,2,0.0,721.2349999880826
9,22.0,hard,explanation,Experiment 1 (no preview),13,hidden,2.0,a,,b,1.0,,,2.0,2,1.0,769.9580000059505
9,22.0,hard,explanation,Experiment 1 (no preview),14,visible,3.0,b,2.0,b,0.0,,,2.0,2,1.0,349.15399999404326
9,22.0,hard,explanation,Experiment 1 (no preview),15,visible,3.0,b,2.0,a,2.0,,,2.0,2,1.0,520.323000000004
9,22.0,hard,explanation,Experiment 1 (no preview),16,hidden,3.0,a,,a,3.0,,,1.0,2,0.0,349.84400000594906
9,22.0,hard,explanation,Experiment 1 (no preview),17,visible,1.0,b,3.0,a,2.0,,,1.0,2,0.0,362.6769999821263
9,22.0,hard,explanation,Experiment 1 (no preview),18,visible,2.0,b,1.0,a,1.0,,,1.0,2,0.0,359.3569999821193
9,22.0,hard,explanation,Experiment 1 (no preview),19,visible,0.0,a,3.0,a,0.0,,,2.0,2,1.0,427.5569999940344
9,22.0,hard,explanation,Experiment 1 (no preview),20,hidden,1.0,b,,b,2.0,,,1.0,2,0.0,411.3449999880977
14,21.0,easy,explanation,Experiment 1 (no preview),1,hidden,2.0,b,,b,2.0,,,2.0,2,1.0,12427.0
14,21.0,easy,explanation,Experiment 1 (no preview),2,visible,0.0,a,2.0,b,2.0,,,2.0,1,0.0,9118.0
14,21.0,easy,explanation,Experiment 1 (no preview),3,hidden,3.0,a,,b,2.0,,,1.0,1,1.0,3328.0
14,21.0,easy,explanation,Experiment 1 (no preview),4,visible,3.0,a,1.0,b,0.0,,,1.0,1,1.0,9292.0
14,21.0,easy,explanation,Experiment 1 (no preview),5,visible,2.0,a,0.0,b,2.0,,,1.0,1,1.0,3763.0
14,21.0,easy,explanation,Experiment 1 (no preview),6,visible,0.0,a,2.0,a,0.0,,,2.0,2,1.0,4907.0
14,21.0,easy,explanation,Experiment 1 (no preview),7,visible,0.0,b,2.0,b,2.0,,,2.0,2,1.0,3888.0
14,21.0,easy,explanation,Experiment 1 (no preview),8,hidden,0.0,a,,a,0.0,,,2.0,2,1.0,3843.0
14,21.0,easy,explanation,Experiment 1 (no preview),9,hidden,0.0,b,,b,2.0,,,2.0,1,0.0,9224.0
14,21.0,easy,explanation,Experiment 1 (no preview),10,visible,2.0,a,0.0,a,2.0,,,1.0,2,0.0,2463.0
14,21.0,easy,explanation,Experiment 1 (no preview),11,visible,0.0,b,2.0,a,3.0,,,2.0,2,1.0,1765.0
14,21.0,easy,explanation,Experiment 1 (no preview),12,hidden,3.0,a,,a,2.0,,,1.0,2,0.0,943.0
14,21.0,easy,explanation,Experiment 1 (no preview),13,hidden,3.0,a,,b,0.0,,,1.0,1,1.0,2168.000000000058
14,21.0,easy,explanation,Experiment 1 (no preview),14,hidden,0.0,b,,a,0.0,,,2.0,2,1.0,1187.0
14,21.0,easy,explanation,Experiment 1 (no preview),15,visible,0.0,b,2.0,a,0.0,,,2.0,2,1.0,592.0
14,21.0,easy,explanation,Experiment 1 (no preview),16,hidden,3.0,b,,a,0.0,,,2.0,2,1.0,2133.0
14,21.0,easy,explanation,Experiment 1 (no preview),17,visible,3.0,a,0.0,a,2.0,,,1.0,2,0.0,1649.0000000000582
14,21.0,easy,explanation,Experiment 1 (no preview),18,hidden,2.0,a,,a,2.0,,,1.0,2,0.0,3268.0
14,21.0,easy,explanation,Experiment 1 (no preview),19,visible,3.0,a,1.0,a,0.0,,,1.0,2,0.0,827.0
14,21.0,easy,explanation,Experiment 1 (no preview),20,hidden,0.0,a,,a,3.0,,,2.0,2,1.0,413.0
15,22.0,hard,explanation,Experiment 1 (no preview),1,visible,1.0,b,3.0,a,2.0,,,1.0,2,0.0,4591.160000000033
15,22.0,hard,explanation,Experiment 1 (no preview),2,visible,3.0,b,2.0,b,0.0,,,2.0,2,1.0,6871.5
15,22.0,hard,explanation,Experiment 1 (no preview),3,visible,0.0,a,3.0,a,0.0,,,2.0,2,1.0,3232.5
15,22.0,hard,explanation,Experiment 1 (no preview),4,hidden,3.0,b,,a,2.0,,,2.0,2,1.0,5840.239999999991
15,22.0,hard,explanation,Experiment 1 (no preview),5,visible,3.0,b,2.0,a,2.0,,,2.0,1,0.0,2046.859999999986
15,22.0,hard,explanation,Experiment 1 (no preview),6,hidden,1.0,b,,b,2.0,,,1.0,1,1.0,466.8800000000047
15,22.0,hard,explanation,Experiment 1 (no preview),7,hidden,1.0,a,,a,0.0,,,2.0,2,1.0,860.9000000000233
15,22.0,hard,explanation,Experiment 1 (no preview),8,visible,3.0,a,0.0,b,3.0,,,1.0,2,0.0,783.9200000000419
15,22.0,hard,explanation,Experiment 1 (no preview),9,visible,1.0,a,0.0,a,3.0,,,1.0,1,1.0,1758.939999999944
15,22.0,hard,explanation,Experiment 1 (no preview),10,hidden,2.0,b,,b,3.0,,,1.0,1,1.0,774.4000000000233
15,22.0,hard,explanation,Experiment 1 (no preview),11,hidden,0.0,a,,a,0.0,,,2.0,1,0.0,554.1800000000512
15,22.0,hard,explanation,Experiment 1 (no preview),12,visible,0.0,b,3.0,b,3.0,,,2.0,1,0.0,2097.939999999944
15,22.0,hard,explanation,Experiment 1 (no preview),13,hidden,1.0,b,,a,2.0,,,1.0,2,0.0,4006.4000000000233
15,22.0,hard,explanation,Experiment 1 (no preview),14,hidden,2.0,b,,a,1.0,,,1.0,2,0.0,1455.3399999999674
15,22.0,hard,explanation,Experiment 1 (no preview),15,hidden,3.0,a,,a,3.0,,,1.0,2,0.0,223.40000000002328
15,22.0,hard,explanation,Experiment 1 (no preview),16,visible,3.0,a,2.0,b,1.0,,,2.0,2,1.0,135.61999999999534
15,22.0,hard,explanation,Experiment 1 (no preview),17,hidden,3.0,b,,b,3.0,,,2.0,1,0.0,9501.699999999952
15,22.0,hard,explanation,Experiment 1 (no preview),18,visible,2.0,b,1.0,a,1.0,,,1.0,1,1.0,5234.300000000047
15,22.0,hard,explanation,Experiment 1 (no preview),19,visible,2.0,b,1.0,b,1.0,,,1.0,1,1.0,8099.040000000037
15,22.0,hard,explanation,Experiment 1 (no preview),20,hidden,2.0,a,,b,1.0,,,2.0,2,1.0,2161.9599999999627
40,22.0,hard,explanation,Experiment 1 (no preview),1,visible,3.0,b,2.0,b,0.0,,,2.0,2,1.0,17085.61500000223
40,22.0,hard,explanation,Experiment 1 (no preview),2,visible,3.0,a,2.0,b,1.0,,,2.0,2,1.0,4556.036000002991
40,22.0,hard,explanation,Experiment 1 (no preview),3,visible,1.0,b,3.0,a,2.0,,,1.0,2,0.0,9326.91500000225
40,22.0,hard,explanation,Experiment 1 (no preview),4,visible,2.0,b,1.0,a,1.0,,,1.0,1,1.0,17847.801999999996
40,22.0,hard,explanation,Experiment 1 (no preview),5,visible,2.0,b,1.0,b,1.0,,,1.0,2,0.0,5077.343000002264
40,22.0,hard,explanation,Experiment 1 (no preview),6,hidden,2.0,a,,b,1.0,,,2.0,2,1.0,17683.263000000734
40,22.0,hard,explanation,Experiment 1 (no preview),7,visible,1.0,a,0.0,a,3.0,,,1.0,1,1.0,3413.2990000015125
40,22.0,hard,explanation,Experiment 1 (no preview),8,hidden,3.0,b,,a,2.0,,,2.0,2,1.0,3375.5410000000265
40,22.0,hard,explanation,Experiment 1 (no preview),9,hidden,1.0,a,,a,0.0,,,2.0,1,0.0,2459.6320000014966
40,22.0,hard,explanation,Experiment 1 (no preview),10,hidden,3.0,b,,b,3.0,,,2.0,1,0.0,5931.760000000766
40,22.0,hard,explanation,Experiment 1 (no preview),11,visible,3.0,a,0.0,b,3.0,,,1.0,2,0.0,4068.466000002984
40,22.0,hard,explanation,Experiment 1 (no preview),12,visible,0.0,a,3.0,a,0.0,,,2.0,1,0.0,5727.272000001511
40,22.0,hard,explanation,Experiment 1 (no preview),13,hidden,2.0,b,,a,1.0,,,1.0,2,0.0,2810.5340000029537
40,22.0,hard,explanation,Experiment 1 (no preview),14,hidden,1.0,b,,b,2.0,,,1.0,2,0.0,3525.6520000029705
40,22.0,hard,explanation,Experiment 1 (no preview),15,hidden,3.0,a,,a,3.0,,,1.0,2,0.0,1306.471000002988
40,22.0,hard,explanation,Experiment 1 (no preview),16,hidden,1.0,b,,a,2.0,,,1.0,2,0.0,667.0930000015069
40,22.0,hard,explanation,Experiment 1 (no preview),17,visible,0.0,b,3.0,b,3.0,,,2.0,1,0.0,1290.4220000014757
40,22.0,hard,explanation,Experiment 1 (no preview),18,visible,3.0,b,2.0,a,2.0,,,2.0,2,1.0,579.187000003003
40,22.0,hard,explanation,Experiment 1 (no preview),19,hidden,0.0,a,,a,0.0,,,2.0,1,0.0,2622.99900000298
40,22.0,hard,explanation,Experiment 1 (no preview),20,hidden,2.0,b,,b,3.0,,,1.0,2,0.0,2090.6780000022263
18,22.0,hard,explanation,Experiment 1 (no preview),1,hidden,1.0,a,,a,0.0,,,2.0,2,1.0,4547.619999999995
18,22.0,hard,explanation,Experiment 1 (no preview),2,visible,3.0,a,2.0,b,1.0,,,2.0,1,0.0,3694.720000000001
18,22.0,hard,explanation,Experiment 1 (no preview),3,hidden,1.0,b,,b,2.0,,,1.0,2,0.0,4110.100000000006
18,22.0,hard,explanation,Experiment 1 (no preview),4,visible,2.0,b,1.0,b,1.0,,,1.0,2,0.0,1282.8399999999965
18,22.0,hard,explanation,Experiment 1 (no preview),5,hidden,2.0,b,,b,3.0,,,1.0,1,1.0,2960.420000000013
18,22.0,hard,explanation,Experiment 1 (no preview),6,visible,1.0,a,0.0,a,3.0,,,1.0,2,0.0,3365.1600000000035
18,22.0,hard,explanation,Experiment 1 (no preview),7,visible,2.0,b,1.0,a,1.0,,,1.0,2,0.0,1082.9400000000023
18,22.0,hard,explanation,Experiment 1 (no preview),8,visible,0.0,a,3.0,a,0.0,,,2.0,2,1.0,1210.9400000000023
18,22.0,hard,explanation,Experiment 1 (no preview),9,hidden,3.0,b,,a,2.0,,,2.0,2,1.0,331.85999999998603
18,22.0,hard,explanation,Experiment 1 (no preview),10,hidden,2.0,a,,b,1.0,,,2.0,1,0.0,1133.0199999999895
18,22.0,hard,explanation,Experiment 1 (no preview),11,visible,1.0,b,3.0,a,2.0,,,1.0,1,1.0,2073.420000000013
18,22.0,hard,explanation,Experiment 1 (no preview),12,visible,3.0,a,0.0,b,3.0,,,1.0,2,0.0,1881.200000000012
18,22.0,hard,explanation,Experiment 1 (no preview),13,visible,0.0,b,3.0,b,3.0,,,2.0,1,0.0,299.5
18,22.0,hard,explanation,Experiment 1 (no preview),14,hidden,2.0,b,,a,1.0,,,1.0,2,0.0,376.320000000007
18,22.0,hard,explanation,Experiment 1 (no preview),15,visible,3.0,b,2.0,a,2.0,,,2.0,1,0.0,941.8400000000256
18,22.0,hard,explanation,Experiment 1 (no preview),16,hidden,1.0,b,,a,2.0,,,1.0,2,0.0,2546.820000000007
18,22.0,hard,explanation,Experiment 1 (no preview),17,hidden,0.0,a,,a,0.0,,,2.0,2,1.0,311.2399999999907
18,22.0,hard,explanation,Experiment 1 (no preview),18,hidden,3.0,b,,b,3.0,,,2.0,2,1.0,359.1599999999744
18,22.0,hard,explanation,Experiment 1 (no preview),19,hidden,3.0,a,,a,3.0,,,1.0,1,1.0,210.52000000001863
18,22.0,hard,explanation,Experiment 1 (no preview),20,visible,3.0,b,2.0,b,0.0,,,2.0,2,1.0,215.67999999999304
23,21.0,easy,explanation,Experiment 1 (no preview),1,visible,3.0,a,0.0,a,2.0,,,1.0,2,0.0,4456.863000000769
23,21.0,easy,explanation,Experiment 1 (no preview),2,hidden,3.0,a,,a,2.0,,,1.0,2,0.0,6470.384000002232
23,21.0,easy,explanation,Experiment 1 (no preview),3,visible,0.0,b,2.0,a,0.0,,,2.0,2,1.0,3255.023000000743
23,21.0,easy,explanation,Experiment 1 (no preview),4,visible,2.0,a,0.0,a,2.0,,,1.0,2,0.0,2656.398000000743
23,21.0,easy,explanation,Experiment 1 (no preview),5,visible,0.0,a,2.0,a,0.0,,,2.0,2,1.0,2841.878000002238
23,21.0,easy,explanation,Experiment 1 (no preview),6,visible,0.0,b,2.0,b,2.0,,,2.0,2,1.0,4459.802000000724
23,21.0,easy,explanation,Experiment 1 (no preview),7,hidden,0.0,b,,b,2.0,,,2.0,2,1.0,2532.541000000725
23,21.0,easy,explanation,Experiment 1 (no preview),8,visible,3.0,a,1.0,b,0.0,,,1.0,2,0.0,1314.6820000022417
23,21.0,easy,explanation,Experiment 1 (no preview),9,hidden,2.0,a,,a,2.0,,,1.0,2,0.0,2017.3910000022152
23,21.0,easy,explanation,Experiment 1 (no preview),10,hidden,3.0,a,,b,0.0,,,1.0,2,0.0,6900.088000002259
23,21.0,easy,explanation,Experiment 1 (no preview),11,hidden,3.0,b,,a,0.0,,,2.0,2,1.0,587.4890000022133
23,21.0,easy,explanation,Experiment 1 (no preview),12,visible,0.0,b,2.0,a,3.0,,,2.0,2,1.0,1287.4210000007297
23,21.0,easy,explanation,Experiment 1 (no preview),13,hidden,0.0,a,,a,3.0,,,2.0,2,1.0,2319.5570000022417
23,21.0,easy,explanation,Experiment 1 (no preview),14,hidden,2.0,b,,b,2.0,,,2.0,2,1.0,1390.253000002238
23,21.0,easy,explanation,Experiment 1 (no preview),15,hidden,0.0,b,,a,0.0,,,2.0,2,1.0,1090.190000000759
23,21.0,easy,explanation,Experiment 1 (no preview),16,visible,3.0,a,1.0,a,0.0,,,1.0,2,0.0,658.2260000007227
23,21.0,easy,explanation,Experiment 1 (no preview),17,hidden,0.0,a,,a,0.0,,,2.0,2,1.0,459.5960000007181
23,21.0,easy,explanation,Experiment 1 (no preview),18,hidden,3.0,a,,b,2.0,,,1.0,2,0.0,372.2880000007572
23,21.0,easy,explanation,Experiment 1 (no preview),19,visible,2.0,a,0.0,b,2.0,,,1.0,2,0.0,480.3080000007758
23,21.0,easy,explanation,Experiment 1 (no preview),20,visible,0.0,a,2.0,b,2.0,,,2.0,2,1.0,648.3340000007302
25,21.0,easy,explanation,Experiment 1 (no preview),1,visible,0.0,a,2.0,a,0.0,,,2.0,1,0.0,17371.176000143052
25,21.0,easy,explanation,Experiment 1 (no preview),2,visible,3.0,a,1.0,a,0.0,,,1.0,2,0.0,10072.831999952325
25,21.0,easy,explanation,Experiment 1 (no preview),3,visible,0.0,a,2.0,b,2.0,,,2.0,2,1.0,1023.0390000476908
25,21.0,easy,explanation,Experiment 1 (no preview),4,hidden,3.0,b,,a,0.0,,,2.0,2,1.0,6275.161000047694
25,21.0,easy,explanation,Experiment 1 (no preview),5,visible,2.0,a,0.0,b,2.0,,,1.0,2,0.0,578.9090000953584
25,21.0,easy,explanation,Experiment 1 (no preview),6,hidden,2.0,b,,b,2.0,,,2.0,1,0.0,2443.9060000953614
25,21.0,easy,explanation,Experiment 1 (no preview),7,hidden,0.0,a,,a,0.0,,,2.0,1,0.0,2492.0490000953723
25,21.0,easy,explanation,Experiment 1 (no preview),8,hidden,3.0,a,,b,0.0,,,1.0,2,0.0,1652.777000047674
25,21.0,easy,explanation,Experiment 1 (no preview),9,visible,3.0,a,1.0,b,0.0,,,1.0,1,1.0,3966.637999999977
25,21.0,easy,explanation,Experiment 1 (no preview),10,visible,2.0,a,0.0,a,2.0,,,1.0,1,1.0,1884.717000000004
25,21.0,easy,explanation,Experiment 1 (no preview),11,hidden,0.0,b,,a,0.0,,,2.0,1,0.0,604.2800000000279
25,21.0,easy,explanation,Experiment 1 (no preview),12,hidden,0.0,a,,a,3.0,,,2.0,2,1.0,355.33900014305254
25,21.0,easy,explanation,Experiment 1 (no preview),13,hidden,3.0,a,,a,2.0,,,1.0,1,1.0,1224.819000143034
25,21.0,easy,explanation,Experiment 1 (no preview),14,visible,3.0,a,0.0,a,2.0,,,1.0,2,0.0,7387.365000047663
25,21.0,easy,explanation,Experiment 1 (no preview),15,hidden,2.0,a,,a,2.0,,,1.0,1,1.0,1313.6780000000144
25,21.0,easy,explanation,Experiment 1 (no preview),16,visible,0.0,b,2.0,a,0.0,,,2.0,1,0.0,481.31099999998696
25,21.0,easy,explanation,Experiment 1 (no preview),17,visible,0.0,b,2.0,b,2.0,,,2.0,1,0.0,556.3929999999818
25,21.0,easy,explanation,Experiment 1 (no preview),18,hidden,0.0,b,,b,2.0,,,2.0,2,1.0,1114.2620000953902
25,21.0,easy,explanation,Experiment 1 (no preview),19,hidden,3.0,a,,b,2.0,,,1.0,2,0.0,705.3059999523102
25,21.0,easy,explanation,Experiment 1 (no preview),20,visible,0.0,b,2.0,a,3.0,,,2.0,1,0.0,391.1180000953609
30,22.0,hard,explanation,Experiment 1 (no preview),1,hidden,2.0,a,,b,1.0,,,2.0,1,0.0,4237.956000000355
30,22.0,hard,explanation,Experiment 1 (no preview),2,hidden,1.0,a,,a,0.0,,,2.0,2,1.0,14051.888000000734
30,22.0,hard,explanation,Experiment 1 (no preview),3,hidden,3.0,b,,a,2.0,,,2.0,1,0.0,5965.035000000731
30,22.0,hard,explanation,Experiment 1 (no preview),4,visible,1.0,a,0.0,a,3.0,,,1.0,1,1.0,2564.761000000756
30,22.0,hard,explanation,Experiment 1 (no preview),5,visible,1.0,b,3.0,a,2.0,,,1.0,2,0.0,570.0910000003641
30,22.0,hard,explanation,Experiment 1 (no preview),6,visible,3.0,b,2.0,a,2.0,,,2.0,2,1.0,2556.966000000364
30,22.0,hard,explanation,Experiment 1 (no preview),7,hidden,0.0,a,,a,0.0,,,2.0,1,0.0,1199.105000000738
30,22.0,hard,explanation,Experiment 1 (no preview),8,hidden,1.0,b,,a,2.0,,,1.0,1,1.0,1797.217000000761
30,22.0,hard,explanation,Experiment 1 (no preview),9,hidden,2.0,b,,a,1.0,,,1.0,2,0.0,1860.6980000003823
30,22.0,hard,explanation,Experiment 1 (no preview),10,visible,3.0,a,0.0,b,3.0,,,1.0,1,1.0,616.086000000767
30,22.0,hard,explanation,Experiment 1 (no preview),11,hidden,3.0,a,,a,3.0,,,1.0,2,0.0,721.1190000007628
30,22.0,hard,explanation,Experiment 1 (no preview),12,visible,3.0,b,2.0,b,0.0,,,2.0,2,1.0,10797.473000000757
30,22.0,hard,explanation,Experiment 1 (no preview),13,hidden,2.0,b,,b,3.0,,,1.0,1,1.0,2158.1210000007413
30,22.0,hard,explanation,Experiment 1 (no preview),14,visible,2.0,b,1.0,b,1.0,,,1.0,2,0.0,995.8540000003997
30,22.0,hard,explanation,Experiment 1 (no preview),15,hidden,3.0,b,,b,3.0,,,2.0,2,1.0,380.7320000007167
30,22.0,hard,explanation,Experiment 1 (no preview),16,hidden,1.0,b,,b,2.0,,,1.0,2,0.0,419.7360000003828
30,22.0,hard,explanation,Experiment 1 (no preview),17,visible,0.0,b,3.0,b,3.0,,,2.0,1,0.0,491.0340000007418
30,22.0,hard,explanation,Experiment 1 (no preview),18,visible,0.0,a,3.0,a,0.0,,,2.0,2,1.0,4562.191000000399
30,22.0,hard,explanation,Experiment 1 (no preview),19,visible,2.0,b,1.0,a,1.0,,,1.0,2,0.0,542.0210000007646
30,22.0,hard,explanation,Experiment 1 (no preview),20,visible,3.0,a,2.0,b,1.0,,,2.0,2,1.0,559.5000000003492
31,21.0,easy,explanation,Experiment 1 (no preview),1,visible,2.0,a,0.0,b,2.0,,,1.0,2,0.0,5315.0
31,21.0,easy,explanation,Experiment 1 (no preview),2,hidden,0.0,b,,a,0.0,,,2.0,1,0.0,7182.0
31,21.0,easy,explanation,Experiment 1 (no preview),3,hidden,3.0,a,,b,0.0,,,1.0,2,0.0,11900.0
31,21.0,easy,explanation,Experiment 1 (no preview),4,hidden,0.0,b,,b,2.0,,,2.0,2,1.0,3749.0
31,21.0,easy,explanation,Experiment 1 (no preview),5,visible,3.0,a,0.0,a,2.0,,,1.0,1,1.0,8183.0
31,21.0,easy,explanation,Experiment 1 (no preview),6,hidden,2.0,b,,b,2.0,,,2.0,1,0.0,9118.0
31,21.0,easy,explanation,Experiment 1 (no preview),7,visible,0.0,b,2.0,b,2.0,,,2.0,2,1.0,3403.0
31,21.0,easy,explanation,Experiment 1 (no preview),8,hidden,0.0,a,,a,3.0,,,2.0,2,1.0,2822.0
31,21.0,easy,explanation,Experiment 1 (no preview),9,hidden,2.0,a,,a,2.0,,,1.0,1,1.0,3407.0
31,21.0,easy,explanation,Experiment 1 (no preview),10,visible,0.0,a,2.0,b,2.0,,,2.0,1,0.0,2924.000000000058
31,21.0,easy,explanation,Experiment 1 (no preview),11,hidden,0.0,a,,a,0.0,,,2.0,2,1.0,9476.000000000058
31,21.0,easy,explanation,Experiment 1 (no preview),12,visible,0.0,a,2.0,a,0.0,,,2.0,1,0.0,1526.0000000000582
31,21.0,easy,explanation,Experiment 1 (no preview),13,visible,3.0,a,1.0,a,0.0,,,1.0,2,0.0,2760.0
31,21.0,easy,explanation,Experiment 1 (no preview),14,visible,2.0,a,0.0,a,2.0,,,1.0,2,0.0,3544.0
31,21.0,easy,explanation,Experiment 1 (no preview),15,visible,0.0,b,2.0,a,0.0,,,2.0,2,1.0,6727.0
31,21.0,easy,explanation,Experiment 1 (no preview),16,hidden,3.0,a,,b,2.0,,,1.0,1,1.0,3127.0
31,21.0,easy,explanation,Experiment 1 (no preview),17,visible,3.0,a,1.0,b,0.0,,,1.0,1,1.0,1544.0
31,21.0,easy,explanation,Experiment 1 (no preview),18,hidden,3.0,b,,a,0.0,,,2.0,2,1.0,6578.0
31,21.0,easy,explanation,Experiment 1 (no preview),19,visible,0.0,b,2.0,a,3.0,,,2.0,2,1.0,1245.0
31,21.0,easy,explanation,Experiment 1 (no preview),20,hidden,3.0,a,,a,2.0,,,1.0,1,1.0,1295.0
32,21.0,easy,explanation,Experiment 1 (no preview),1,visible,0.0,b,2.0,b,2.0,,,2.0,2,1.0,3720.93500001193
32,21.0,easy,explanation,Experiment 1 (no preview),2,hidden,3.0,a,,a,2.0,,,1.0,2,0.0,6618.402000011934
32,21.0,easy,explanation,Experiment 1 (no preview),3,hidden,2.0,b,,b,2.0,,,2.0,2,1.0,1316.8680000089516
32,21.0,easy,explanation,Experiment 1 (no preview),4,hidden,0.0,a,,a,3.0,,,2.0,2,1.0,1499.7840000119177
32,21.0,easy,explanation,Experiment 1 (no preview),5,visible,0.0,b,2.0,a,3.0,,,2.0,2,1.0,2523.820000000007
32,21.0,easy,explanation,Experiment 1 (no preview),6,visible,2.0,a,0.0,b,2.0,,,1.0,1,1.0,3433.581999999995
32,21.0,easy,explanation,Experiment 1 (no preview),7,visible,0.0,a,2.0,b,2.0,,,2.0,2,1.0,699.9480000030017
32,21.0,easy,explanation,Experiment 1 (no preview),8,visible,2.0,a,0.0,a,2.0,,,1.0,2,0.0,1947.207000002964
32,21.0,easy,explanation,Experiment 1 (no preview),9,hidden,0.0,b,,b,2.0,,,2.0,2,1.0,1088.7170000029728
32,21.0,easy,explanation,Experiment 1 (no preview),10,hidden,3.0,a,,b,0.0,,,1.0,1,1.0,744.6260000089533
32,21.0,easy,explanation,Experiment 1 (no preview),11,visible,0.0,a,2.0,a,0.0,,,2.0,2,1.0,2030.5499999999884
32,21.0,easy,explanation,Experiment 1 (no preview),12,visible,3.0,a,0.0,a,2.0,,,1.0,2,0.0,1440.6170000089332
32,21.0,easy,explanation,Experiment 1 (no preview),13,hidden,0.0,a,,a,0.0,,,2.0,2,1.0,1378.460000005958
32,21.0,easy,explanation,Experiment 1 (no preview),14,hidden,2.0,a,,a,2.0,,,1.0,2,0.0,446.8010000030045
32,21.0,easy,explanation,Experiment 1 (no preview),15,hidden,3.0,b,,a,0.0,,,2.0,2,1.0,1648.0260000089183
32,21.0,easy,explanation,Experiment 1 (no preview),16,visible,3.0,a,1.0,a,0.0,,,1.0,2,0.0,945.7730000119192
32,21.0,easy,explanation,Experiment 1 (no preview),17,visible,3.0,a,1.0,b,0.0,,,1.0,1,1.0,1118.7179999999937
32,21.0,easy,explanation,Experiment 1 (no preview),18,hidden,3.0,a,,b,2.0,,,1.0,1,1.0,5581.305000005988
32,21.0,easy,explanation,Experiment 1 (no preview),19,visible,0.0,b,2.0,a,0.0,,,2.0,2,1.0,2289.695000002976
32,21.0,easy,explanation,Experiment 1 (no preview),20,hidden,0.0,b,,a,0.0,,,2.0,2,1.0,873.4570000059321
33,21.0,easy,explanation,Experiment 1 (no preview),1,hidden,0.0,a,,a,0.0,,,2.0,1,0.0,3264.664000005956
33,21.0,easy,explanation,Experiment 1 (no preview),2,hidden,0.0,b,,a,0.0,,,2.0,2,1.0,3439.020000005956
33,21.0,easy,explanation,Experiment 1 (no preview),3,hidden,3.0,a,,a,2.0,,,1.0,1,1.0,7617.200000008946
33,21.0,easy,explanation,Experiment 1 (no preview),4,visible,0.0,b,2.0,b,2.0,,,2.0,2,1.0,4171.702000002988
33,21.0,easy,explanation,Experiment 1 (no preview),5,visible,0.0,b,2.0,a,3.0,,,2.0,1,0.0,825.0640000089479
33,21.0,easy,explanation,Experiment 1 (no preview),6,hidden,2.0,b,,b,2.0,,,2.0,2,1.0,6064.944000002986
33,21.0,easy,explanation,Experiment 1 (no preview),7,hidden,0.0,b,,b,2.0,,,2.0,2,1.0,755.0810000029742
33,21.0,easy,explanation,Experiment 1 (no preview),8,visible,0.0,b,2.0,a,0.0,,,2.0,2,1.0,1759.452000002988
33,21.0,easy,explanation,Experiment 1 (no preview),9,hidden,2.0,a,,a,2.0,,,1.0,1,1.0,1114.73700000596
33,21.0,easy,explanation,Experiment 1 (no preview),10,visible,3.0,a,1.0,b,0.0,,,1.0,2,0.0,1389.3800000029732
33,21.0,easy,explanation,Experiment 1 (no preview),11,hidden,3.0,a,,b,2.0,,,1.0,2,0.0,1129.9590000029712
33,21.0,easy,explanation,Experiment 1 (no preview),12,visible,2.0,a,0.0,a,2.0,,,1.0,1,1.0,940.9330000119226
33,21.0,easy,explanation,Experiment 1 (no preview),13,hidden,3.0,b,,a,0.0,,,2.0,2,1.0,1057.1320000119158
33,21.0,easy,explanation,Experiment 1 (no preview),14,visible,0.0,a,2.0,a,0.0,,,2.0,1,0.0,1595.738000008947
33,21.0,easy,explanation,Experiment 1 (no preview),15,hidden,3.0,a,,b,0.0,,,1.0,1,1.0,31511.42300000892
33,21.0,easy,explanation,Experiment 1 (no preview),16,visible,0.0,a,2.0,b,2.0,,,2.0,2,1.0,682.1420000119251
33,21.0,easy,explanation,Experiment 1 (no preview),17,visible,3.0,a,1.0,a,0.0,,,1.0,2,0.0,759.2530000059633
33,21.0,easy,explanation,Experiment 1 (no preview),18,visible,2.0,a,0.0,b,2.0,,,1.0,1,1.0,529.4250000059837
33,21.0,easy,explanation,Experiment 1 (no preview),19,visible,3.0,a,0.0,a,2.0,,,1.0,1,1.0,1845.515000000014
33,21.0,easy,explanation,Experiment 1 (no preview),20,hidden,0.0,a,,a,3.0,,,2.0,1,0.0,1561.5590000059456
42,21.0,easy,explanation,Experiment 1 (no preview),1,visible,3.0,a,1.0,b,0.0,,,1.0,1,1.0,6627.542000047688
42,21.0,easy,explanation,Experiment 1 (no preview),2,hidden,0.0,b,,b,2.0,,,2.0,2,1.0,7143.177000023832
42,21.0,easy,explanation,Experiment 1 (no preview),3,hidden,3.0,b,,a,0.0,,,2.0,2,1.0,12767.570000000009
42,21.0,easy,explanation,Experiment 1 (no preview),4,visible,0.0,a,2.0,b,2.0,,,2.0,2,1.0,805.3640000476735
42,21.0,easy,explanation,Experiment 1 (no preview),5,hidden,0.0,b,,a,0.0,,,2.0,2,1.0,9096.409999999974
42,21.0,easy,explanation,Experiment 1 (no preview),6,visible,0.0,b,2.0,b,2.0,,,2.0,2,1.0,2396.6110000238405
42,21.0,easy,explanation,Experiment 1 (no preview),7,hidden,2.0,b,,b,2.0,,,2.0,1,0.0,5600.769000023836
42,21.0,easy,explanation,Experiment 1 (no preview),8,hidden,3.0,a,,b,2.0,,,1.0,2,0.0,3743.530000071507
42,21.0,easy,explanation,Experiment 1 (no preview),9,visible,2.0,a,0.0,b,2.0,,,1.0,2,0.0,813.0410000000265
42,21.0,easy,explanation,Experiment 1 (no preview),10,hidden,0.0,a,,a,0.0,,,2.0,1,0.0,4706.089000023843
42,21.0,easy,explanation,Experiment 1 (no preview),11,hidden,3.0,a,,b,0.0,,,1.0,1,1.0,787.3670000476995
42,21.0,easy,explanation,Experiment 1 (no preview),12,visible,0.0,b,2.0,a,3.0,,,2.0,2,1.0,3678.842000047676
42,21.0,easy,explanation,Experiment 1 (no preview),13,visible,3.0,a,0.0,a,2.0,,,1.0,1,1.0,888.7590000476921
42,21.0,easy,explanation,Experiment 1 (no preview),14,hidden,0.0,a,,a,3.0,,,2.0,2,1.0,877.1260000715265
42,21.0,easy,explanation,Experiment 1 (no preview),15,visible,0.0,b,2.0,a,0.0,,,2.0,2,1.0,798.6820000477019
42,21.0,easy,explanation,Experiment 1 (no preview),16,visible,3.0,a,1.0,a,0.0,,,1.0,2,0.0,1135.8819999999832
42,21.0,easy,explanation,Experiment 1 (no preview),17,visible,0.0,a,2.0,a,0.0,,,2.0,2,1.0,913.6450000476908
42,21.0,easy,explanation,Experiment 1 (no preview),18,visible,2.0,a,0.0,a,2.0,,,1.0,2,0.0,4854.534000071522
42,21.0,easy,explanation,Experiment 1 (no preview),19,hidden,3.0,a,,a,2.0,,,1.0,2,0.0,402.78499997616746
42,21.0,easy,explanation,Experiment 1 (no preview),20,hidden,2.0,a,,a,2.0,,,1.0,2,0.0,1305.4310000715195
43,21.0,easy,explanation,Experiment 1 (no preview),1,hidden,0.0,a,,a,3.0,,,2.0,2,1.0,9554.983999999997
43,21.0,easy,explanation,Experiment 1 (no preview),2,visible,0.0,a,2.0,a,0.0,,,2.0,2,1.0,8391.94099995232
43,21.0,easy,explanation,Experiment 1 (no preview),3,hidden,3.0,a,,b,0.0,,,1.0,1,1.0,3013.77699995233
43,21.0,easy,explanation,Experiment 1 (no preview),4,hidden,3.0,a,,a,2.0,,,1.0,2,0.0,3835.714999999997
43,21.0,easy,explanation,Experiment 1 (no preview),5,visible,0.0,b,2.0,b,2.0,,,2.0,2,1.0,897.2179999046202
43,21.0,easy,explanation,Experiment 1 (no preview),6,hidden,2.0,b,,b,2.0,,,2.0,2,1.0,773.8549999046372
43,21.0,easy,explanation,Experiment 1 (no preview),7,visible,3.0,a,0.0,a,2.0,,,1.0,1,1.0,5378.432000000001
43,21.0,easy,explanation,Experiment 1 (no preview),8,visible,0.0,b,2.0,a,0.0,,,2.0,2,1.0,1577.9719999046356
43,21.0,easy,explanation,Experiment 1 (no preview),9,hidden,0.0,b,,a,0.0,,,2.0,2,1.0,1165.5819998092777
43,21.0,easy,explanation,Experiment 1 (no preview),10,hidden,0.0,b,,b,2.0,,,2.0,2,1.0,434.96100000001024
43,21.0,easy,explanation,Experiment 1 (no preview),11,visible,2.0,a,0.0,a,2.0,,,1.0,2,0.0,4499.353000000003
43,21.0,easy,explanation,Experiment 1 (no preview),12,hidden,0.0,a,,a,0.0,,,2.0,2,1.0,1681.198999856948
43,21.0,easy,explanation,Experiment 1 (no preview),13,visible,0.0,a,2.0,b,2.0,,,2.0,2,1.0,547.1450000000186
43,21.0,easy,explanation,Experiment 1 (no preview),14,visible,3.0,a,1.0,a,0.0,,,1.0,2,0.0,1529.912999856926
43,21.0,easy,explanation,Experiment 1 (no preview),15,visible,0.0,b,2.0,a,3.0,,,2.0,2,1.0,642.2679998569656
43,21.0,easy,explanation,Experiment 1 (no preview),16,visible,3.0,a,1.0,b,0.0,,,1.0,1,1.0,3899.657999904652
43,21.0,easy,explanation,Experiment 1 (no preview),17,hidden,3.0,b,,a,0.0,,,2.0,2,1.0,636.9039999523084
43,21.0,easy,explanation,Experiment 1 (no preview),18,visible,2.0,a,0.0,b,2.0,,,1.0,2,0.0,2459.4739999999874
43,21.0,easy,explanation,Experiment 1 (no preview),19,hidden,2.0,a,,a,2.0,,,1.0,1,1.0,464.3159999999916
43,21.0,easy,explanation,Experiment 1 (no preview),20,hidden,3.0,a,,b,2.0,,,1.0,2,0.0,562.6359999046545
46,21.0,easy,explanation,Experiment 1 (no preview),1,hidden,3.0,a,,a,2.0,,,1.0,2,0.0,14067.58200014307
46,21.0,easy,explanation,Experiment 1 (no preview),2,hidden,0.0,a,,a,3.0,,,2.0,2,1.0,11179.15800014307
46,21.0,easy,explanation,Experiment 1 (no preview),3,visible,0.0,a,2.0,b,2.0,,,2.0,2,1.0,4319.871000143059
46,21.0,easy,explanation,Experiment 1 (no preview),4,visible,3.0,a,0.0,a,2.0,,,1.0,1,1.0,6081.709000095376
46,21.0,easy,explanation,Experiment 1 (no preview),5,hidden,3.0,b,,a,0.0,,,2.0,2,1.0,5902.194000095362
46,21.0,easy,explanation,Experiment 1 (no preview),6,hidden,2.0,a,,a,2.0,,,1.0,1,1.0,5246.893000190728
46,21.0,easy,explanation,Experiment 1 (no preview),7,hidden,3.0,a,,b,2.0,,,1.0,2,0.0,6354.517000047665
46,21.0,easy,explanation,Experiment 1 (no preview),8,hidden,2.0,b,,b,2.0,,,2.0,1,0.0,1146.3280000477098
46,21.0,easy,explanation,Experiment 1 (no preview),9,visible,0.0,b,2.0,a,0.0,,,2.0,2,1.0,4748.832000047667
46,21.0,easy,explanation,Experiment 1 (no preview),10,visible,0.0,b,2.0,b,2.0,,,2.0,2,1.0,552.4610001430265
46,21.0,easy,explanation,Experiment 1 (no preview),11,hidden,0.0,b,,b,2.0,,,2.0,1,0.0,15842.843000047666
46,21.0,easy,explanation,Experiment 1 (no preview),12,visible,3.0,a,1.0,a,0.0,,,1.0,2,0.0,1320.968000143068
46,21.0,easy,explanation,Experiment 1 (no preview),13,visible,2.0,a,0.0,a,2.0,,,1.0,1,1.0,669.7760000000126
46,21.0,easy,explanation,Experiment 1 (no preview),14,visible,3.0,a,1.0,b,0.0,,,1.0,2,0.0,1139.6500000000233
46,21.0,easy,explanation,Experiment 1 (no preview),15,visible,0.0,b,2.0,a,3.0,,,2.0,2,1.0,2340.7060000953497
46,21.0,easy,explanation,Experiment 1 (no preview),16,visible,0.0,a,2.0,a,0.0,,,2.0,1,0.0,2343.5050000000047
46,21.0,easy,explanation,Experiment 1 (no preview),17,visible,2.0,a,0.0,b,2.0,,,1.0,2,0.0,2617.868000190764
46,21.0,easy,explanation,Experiment 1 (no preview),18,hidden,0.0,a,,a,0.0,,,2.0,2,1.0,661.8530001907493
46,21.0,easy,explanation,Experiment 1 (no preview),19,hidden,0.0,b,,a,0.0,,,2.0,1,0.0,5830.717000190751
46,21.0,easy,explanation,Experiment 1 (no preview),20,hidden,3.0,a,,b,0.0,,,1.0,1,1.0,841.0780000477098
45,21.0,easy,explanation,Experiment 1 (no preview),1,hidden,3.0,b,,a,0.0,,,2.0,2,1.0,3528.384999994014
45,21.0,easy,explanation,Experiment 1 (no preview),2,hidden,0.0,a,,a,0.0,,,2.0,2,1.0,1059.752000005974
45,21.0,easy,explanation,Experiment 1 (no preview),3,hidden,0.0,b,,a,0.0,,,2.0,1,0.0,4360.80199999403
45,21.0,easy,explanation,Experiment 1 (no preview),4,hidden,0.0,a,,a,3.0,,,2.0,2,1.0,3568.520000011893
45,21.0,easy,explanation,Experiment 1 (no preview),5,hidden,2.0,b,,b,2.0,,,2.0,1,0.0,1740.3699999880628
45,21.0,easy,explanation,Experiment 1 (no preview),6,visible,0.0,b,2.0,b,2.0,,,2.0,2,1.0,12826.09899999405
45,21.0,easy,explanation,Experiment 1 (no preview),7,hidden,0.0,b,,b,2.0,,,2.0,1,0.0,5931.403000011924
45,21.0,easy,explanation,Experiment 1 (no preview),8,visible,3.0,a,1.0,a,0.0,,,1.0,1,1.0,951.580999988073
45,21.0,easy,explanation,Experiment 1 (no preview),9,hidden,3.0,a,,b,2.0,,,1.0,2,0.0,549.4269999880926
45,21.0,easy,explanation,Experiment 1 (no preview),10,visible,0.0,b,2.0,a,3.0,,,2.0,2,1.0,852.5230000119191
45,21.0,easy,explanation,Experiment 1 (no preview),11,visible,0.0,a,2.0,b,2.0,,,2.0,2,1.0,1814.644000011904
45,21.0,easy,explanation,Experiment 1 (no preview),12,hidden,2.0,a,,a,2.0,,,1.0,1,1.0,738.85800001194
45,21.0,easy,explanation,Experiment 1 (no preview),13,visible,3.0,a,1.0,b,0.0,,,1.0,1,1.0,3262.9519999880577
45,21.0,easy,explanation,Experiment 1 (no preview),14,visible,0.0,a,2.0,a,0.0,,,2.0,1,0.0,1160.4900000119233
45,21.0,easy,explanation,Experiment 1 (no preview),15,hidden,3.0,a,,b,0.0,,,1.0,2,0.0,815.8499999999767
45,21.0,easy,explanation,Experiment 1 (no preview),16,visible,2.0,a,0.0,b,2.0,,,1.0,1,1.0,619.0239999999758
45,21.0,easy,explanation,Experiment 1 (no preview),17,visible,0.0,b,2.0,a,0.0,,,2.0,2,1.0,417.6599999999744
45,21.0,easy,explanation,Experiment 1 (no preview),18,visible,3.0,a,0.0,a,2.0,,,1.0,2,0.0,572.8180000000284
45,21.0,easy,explanation,Experiment 1 (no preview),19,visible,2.0,a,0.0,a,2.0,,,1.0,2,0.0,1213.0819999940577
45,21.0,easy,explanation,Experiment 1 (no preview),20,hidden,3.0,a,,a,2.0,,,1.0,1,1.0,829.12899999402
47,21.0,easy,explanation,Experiment 1 (no preview),1,visible,2.0,a,0.0,a,2.0,,,1.0,2,0.0,5178.206999988062
47,21.0,easy,explanation,Experiment 1 (no preview),2,hidden,3.0,b,,a,0.0,,,2.0,2,1.0,10402.00099999999
47,21.0,easy,explanation,Experiment 1 (no preview),3,hidden,3.0,a,,a,2.0,,,1.0,2,0.0,2990.059000035748
47,21.0,easy,explanation,Experiment 1 (no preview),4,hidden,0.0,b,,a,0.0,,,2.0,2,1.0,4054.9139999999898
47,21.0,easy,explanation,Experiment 1 (no preview),5,visible,3.0,a,0.0,a,2.0,,,1.0,2,0.0,1084.3310000000056
47,21.0,easy,explanation,Experiment 1 (no preview),6,visible,2.0,a,0.0,b,2.0,,,1.0,1,1.0,3337.830000035756
47,21.0,easy,explanation,Experiment 1 (no preview),7,visible,3.0,a,1.0,b,0.0,,,1.0,2,0.0,3764.393999999971
47,21.0,easy,explanation,Experiment 1 (no preview),8,hidden,0.0,a,,a,0.0,,,2.0,2,1.0,525.5590000000084
47,21.0,easy,explanation,Experiment 1 (no preview),9,hidden,2.0,b,,b,2.0,,,2.0,2,1.0,1106.062000035774
47,21.0,easy,explanation,Experiment 1 (no preview),10,hidden,3.0,a,,b,0.0,,,1.0,2,0.0,535.1170000000275
47,21.0,easy,explanation,Experiment 1 (no preview),11,hidden,2.0,a,,a,2.0,,,1.0,2,0.0,570.843000011926
47,21.0,easy,explanation,Experiment 1 (no preview),12,hidden,3.0,a,,b,2.0,,,1.0,2,0.0,1189.501000035787
47,21.0,easy,explanation,Experiment 1 (no preview),13,visible,0.0,b,2.0,b,2.0,,,2.0,2,1.0,2423.101000035764
47,21.0,easy,explanation,Experiment 1 (no preview),14,hidden,0.0,a,,a,3.0,,,2.0,2,1.0,966.6960000357358
47,21.0,easy,explanation,Experiment 1 (no preview),15,visible,0.0,b,2.0,a,3.0,,,2.0,2,1.0,657.2010000000009
47,21.0,easy,explanation,Experiment 1 (no preview),16,visible,0.0,a,2.0,a,0.0,,,2.0,2,1.0,776.2780000357889
47,21.0,easy,explanation,Experiment 1 (no preview),17,visible,0.0,a,2.0,b,2.0,,,2.0,2,1.0,706.2339999999967
47,21.0,easy,explanation,Experiment 1 (no preview),18,hidden,0.0,b,,b,2.0,,,2.0,2,1.0,583.1280000119004
47,21.0,easy,explanation,Experiment 1 (no preview),19,visible,0.0,b,2.0,a,0.0,,,2.0,2,1.0,489.1510000357521
47,21.0,easy,explanation,Experiment 1 (no preview),20,visible,3.0,a,1.0,a,0.0,,,1.0,2,0.0,655.1809999999823
49,21.0,easy,explanation,Experiment 1 (no preview),1,hidden,2.0,a,,a,2.0,,,1.0,1,1.0,6718.799000762927
49,21.0,easy,explanation,Experiment 1 (no preview),2,visible,0.0,b,2.0,b,2.0,,,2.0,2,1.0,1775.895999237051
49,21.0,easy,explanation,Experiment 1 (no preview),3,visible,0.0,a,2.0,b,2.0,,,2.0,2,1.0,3182.6169996185345
49,21.0,easy,explanation,Experiment 1 (no preview),4,hidden,3.0,a,,a,2.0,,,1.0,1,1.0,6710.158000762953
49,21.0,easy,explanation,Experiment 1 (no preview),5,hidden,0.0,b,,a,0.0,,,2.0,2,1.0,1198.8710000000135
49,21.0,easy,explanation,Experiment 1 (no preview),6,visible,0.0,b,2.0,a,0.0,,,2.0,2,1.0,4991.128999237058
49,21.0,easy,explanation,Experiment 1 (no preview),7,hidden,0.0,a,,a,0.0,,,2.0,2,1.0,712.6460007629357
49,21.0,easy,explanation,Experiment 1 (no preview),8,visible,2.0,a,0.0,a,2.0,,,1.0,2,0.0,1680.2910003814611
49,21.0,easy,explanation,Experiment 1 (no preview),9,hidden,0.0,a,,a,3.0,,,2.0,2,1.0,10099.442000762969
49,21.0,easy,explanation,Experiment 1 (no preview),10,hidden,3.0,a,,b,0.0,,,1.0,1,1.0,3384.885999237071
49,21.0,easy,explanation,Experiment 1 (no preview),11,visible,2.0,a,0.0,b,2.0,,,1.0,2,0.0,3550.750999237061
49,21.0,easy,explanation,Experiment 1 (no preview),12,visible,3.0,a,1.0,a,0.0,,,1.0,2,0.0,2320.1700007629115
49,21.0,easy,explanation,Experiment 1 (no preview),13,visible,0.0,b,2.0,a,3.0,,,2.0,2,1.0,3120.544999237056
49,21.0,easy,explanation,Experiment 1 (no preview),14,visible,3.0,a,0.0,a,2.0,,,1.0,2,0.0,3165.738000000012
49,21.0,easy,explanation,Experiment 1 (no preview),15,hidden,3.0,a,,b,2.0,,,1.0,2,0.0,13544.873000381456
49,21.0,easy,explanation,Experiment 1 (no preview),16,hidden,3.0,b,,a,0.0,,,2.0,2,1.0,1893.9560007629327
49,21.0,easy,explanation,Experiment 1 (no preview),17,visible,0.0,a,2.0,a,0.0,,,2.0,1,0.0,2130.621999618539
49,21.0,easy,explanation,Experiment 1 (no preview),18,hidden,2.0,b,,b,2.0,,,2.0,2,1.0,780.7129999999888
49,21.0,easy,explanation,Experiment 1 (no preview),19,visible,3.0,a,1.0,b,0.0,,,1.0,2,0.0,771.2630007629632
49,21.0,easy,explanation,Experiment 1 (no preview),20,hidden,0.0,b,,b,2.0,,,2.0,2,1.0,708.7910000000265
48,21.0,easy,explanation,Experiment 1 (no preview),1,hidden,0.0,b,,a,0.0,,,2.0,2,1.0,11162.002000143051
48,21.0,easy,explanation,Experiment 1 (no preview),2,visible,0.0,b,2.0,a,0.0,,,2.0,2,1.0,12711.751000190736
48,21.0,easy,explanation,Experiment 1 (no preview),3,hidden,3.0,b,,a,0.0,,,2.0,2,1.0,6949.8180000477005
48,21.0,easy,explanation,Experiment 1 (no preview),4,visible,2.0,a,0.0,a,2.0,,,1.0,2,0.0,7737.413
48,21.0,easy,explanation,Experiment 1 (no preview),5,visible,0.0,a,2.0,b,2.0,,,2.0,2,1.0,1759.5490000476711
48,21.0,easy,explanation,Experiment 1 (no preview),6,hidden,2.0,a,,a,2.0,,,1.0,1,1.0,7490.139000143041
48,21.0,easy,explanation,Experiment 1 (no preview),7,visible,2.0,a,0.0,b,2.0,,,1.0,2,0.0,2848.71800019074
48,21.0,easy,explanation,Experiment 1 (no preview),8,visible,0.0,b,2.0,b,2.0,,,2.0,1,0.0,5768.2900001430535
48,21.0,easy,explanation,Experiment 1 (no preview),9,visible,3.0,a,1.0,b,0.0,,,1.0,1,1.0,8379.174000190746
48,21.0,easy,explanation,Experiment 1 (no preview),10,hidden,3.0,a,,b,0.0,,,1.0,1,1.0,759.5040001430316
48,21.0,easy,explanation,Experiment 1 (no preview),11,hidden,3.0,a,,a,2.0,,,1.0,2,0.0,7181.874000190757
48,21.0,easy,explanation,Experiment 1 (no preview),12,visible,0.0,a,2.0,a,0.0,,,2.0,2,1.0,2680.0620000477065
48,21.0,easy,explanation,Experiment 1 (no preview),13,visible,0.0,b,2.0,a,3.0,,,2.0,2,1.0,3370.004000000016
48,21.0,easy,explanation,Experiment 1 (no preview),14,hidden,2.0,b,,b,2.0,,,2.0,2,1.0,6707.031000095361
48,21.0,easy,explanation,Experiment 1 (no preview),15,hidden,3.0,a,,b,2.0,,,1.0,2,0.0,1935.95600014308
48,21.0,easy,explanation,Experiment 1 (no preview),16,visible,3.0,a,0.0,a,2.0,,,1.0,2,0.0,4337.306999999972
48,21.0,easy,explanation,Experiment 1 (no preview),17,visible,3.0,a,1.0,a,0.0,,,1.0,2,0.0,2767.021000095352
48,21.0,easy,explanation,Experiment 1 (no preview),18,hidden,0.0,a,,a,3.0,,,2.0,2,1.0,5240.755000143079
48,21.0,easy,explanation,Experiment 1 (no preview),19,hidden,0.0,a,,a,0.0,,,2.0,1,0.0,3690.331000190752
48,21.0,easy,explanation,Experiment 1 (no preview),20,hidden,0.0,b,,b,2.0,,,2.0,2,1.0,708.3930001907283
44,21.0,easy,explanation,Experiment 1 (no preview),1,visible,0.0,a,2.0,a,0.0,,,2.0,2,1.0,5580.278999928472
44,21.0,easy,explanation,Experiment 1 (no preview),2,hidden,3.0,a,,b,2.0,,,1.0,1,1.0,1547.942999928462
44,21.0,easy,explanation,Experiment 1 (no preview),3,visible,0.0,a,2.0,b,2.0,,,2.0,1,0.0,4122.843999928475
44,21.0,easy,explanation,Experiment 1 (no preview),4,hidden,0.0,b,,b,2.0,,,2.0,2,1.0,3139.75399997615
44,21.0,easy,explanation,Experiment 1 (no preview),5,visible,0.0,b,2.0,a,0.0,,,2.0,2,1.0,618.5289999523084
44,21.0,easy,explanation,Experiment 1 (no preview),6,hidden,3.0,a,,b,0.0,,,1.0,1,1.0,3556.679999976157
44,21.0,easy,explanation,Experiment 1 (no preview),7,visible,0.0,b,2.0,a,3.0,,,2.0,2,1.0,1917.1479999523144
44,21.0,easy,explanation,Experiment 1 (no preview),8,hidden,0.0,a,,a,0.0,,,2.0,1,0.0,19243.24099990464
44,21.0,easy,explanation,Experiment 1 (no preview),9,hidden,3.0,b,,a,0.0,,,2.0,2,1.0,5204.157999999996
44,21.0,easy,explanation,Experiment 1 (no preview),10,hidden,0.0,b,,a,0.0,,,2.0,2,1.0,545.1579999523237
44,21.0,easy,explanation,Experiment 1 (no preview),11,visible,2.0,a,0.0,a,2.0,,,1.0,2,0.0,456.8909999284661
44,21.0,easy,explanation,Experiment 1 (no preview),12,visible,3.0,a,0.0,a,2.0,,,1.0,2,0.0,417.6509999761474
44,21.0,easy,explanation,Experiment 1 (no preview),13,visible,3.0,a,1.0,a,0.0,,,1.0,2,0.0,727.9629999999888
44,21.0,easy,explanation,Experiment 1 (no preview),14,visible,0.0,b,2.0,b,2.0,,,2.0,1,0.0,2011.2309999046263
44,21.0,easy,explanation,Experiment 1 (no preview),15,visible,2.0,a,0.0,b,2.0,,,1.0,1,1.0,652.5019999523065
44,21.0,easy,explanation,Experiment 1 (no preview),16,hidden,2.0,b,,b,2.0,,,2.0,1,0.0,384.7559999523219
44,21.0,easy,explanation,Experiment 1 (no preview),17,hidden,2.0,a,,a,2.0,,,1.0,2,0.0,1001.2669999999924
44,21.0,easy,explanation,Experiment 1 (no preview),18,hidden,0.0,a,,a,3.0,,,2.0,2,1.0,585.4029999999912
44,21.0,easy,explanation,Experiment 1 (no preview),19,visible,3.0,a,1.0,b,0.0,,,1.0,2,0.0,434.6719999523193
44,21.0,easy,explanation,Experiment 1 (no preview),20,hidden,3.0,a,,a,2.0,,,1.0,2,0.0,367.7879999284633
50,21.0,easy,explanation,Experiment 1 (no preview),1,hidden,0.0,a,,a,3.0,,,2.0,1,0.0,4931.665999999997
50,21.0,easy,explanation,Experiment 1 (no preview),2,visible,2.0,a,0.0,b,2.0,,,1.0,2,0.0,3814.810999999987
50,21.0,easy,explanation,Experiment 1 (no preview),3,visible,3.0,a,1.0,a,0.0,,,1.0,2,0.0,1749.078999999998
50,21.0,easy,explanation,Experiment 1 (no preview),4,hidden,0.0,b,,b,2.0,,,2.0,2,1.0,5908.9679999999935
50,21.0,easy,explanation,Experiment 1 (no preview),5,visible,2.0,a,0.0,a,2.0,,,1.0,2,0.0,5246.813999976148
50,21.0,easy,explanation,Experiment 1 (no preview),6,hidden,3.0,a,,b,2.0,,,1.0,2,0.0,4691.918999952322
50,21.0,easy,explanation,Experiment 1 (no preview),7,hidden,0.0,a,,a,0.0,,,2.0,2,1.0,1723.5279999761551
50,21.0,easy,explanation,Experiment 1 (no preview),8,hidden,0.0,b,,a,0.0,,,2.0,2,1.0,4454.114999976155
50,21.0,easy,explanation,Experiment 1 (no preview),9,visible,0.0,b,2.0,a,0.0,,,2.0,2,1.0,5648.84099997615
50,21.0,easy,explanation,Experiment 1 (no preview),10,visible,0.0,a,2.0,a,0.0,,,2.0,2,1.0,1923.7189999523107
50,21.0,easy,explanation,Experiment 1 (no preview),11,hidden,2.0,b,,b,2.0,,,2.0,2,1.0,3386.7799999523268
50,21.0,easy,explanation,Experiment 1 (no preview),12,hidden,3.0,a,,b,0.0,,,1.0,1,1.0,2440.085999976145
50,21.0,easy,explanation,Experiment 1 (no preview),13,visible,0.0,a,2.0,b,2.0,,,2.0,2,1.0,1524.6019999523414
50,21.0,easy,explanation,Experiment 1 (no preview),14,visible,3.0,a,1.0,b,0.0,,,1.0,1,1.0,2890.919999952312
50,21.0,easy,explanation,Experiment 1 (no preview),15,hidden,2.0,a,,a,2.0,,,1.0,1,1.0,2819.7879999523284
50,21.0,easy,explanation,Experiment 1 (no preview),16,hidden,3.0,b,,a,0.0,,,2.0,2,1.0,502.1079999761423
50,21.0,easy,explanation,Experiment 1 (no preview),17,visible,0.0,b,2.0,a,3.0,,,2.0,2,1.0,3000.2119999761344
50,21.0,easy,explanation,Experiment 1 (no preview),18,hidden,3.0,a,,a,2.0,,,1.0,2,0.0,1785.6879999522937
50,21.0,easy,explanation,Experiment 1 (no preview),19,visible,3.0,a,0.0,a,2.0,,,1.0,1,1.0,442.8389999761712
50,21.0,easy,explanation,Experiment 1 (no preview),20,visible,0.0,b,2.0,b,2.0,,,2.0,2,1.0,603.4759999522939
51,21.0,easy,explanation,Experiment 1 (no preview),1,visible,0.0,b,2.0,b,2.0,,,2.0,1,0.0,9026.0
51,21.0,easy,explanation,Experiment 1 (no preview),2,visible,2.0,a,0.0,a,2.0,,,1.0,2,0.0,5453.0
51,21.0,easy,explanation,Experiment 1 (no preview),3,visible,0.0,b,2.0,a,0.0,,,2.0,2,1.0,7634.0
51,21.0,easy,explanation,Experiment 1 (no preview),4,hidden,2.0,b,,b,2.0,,,2.0,2,1.0,7868.0
51,21.0,easy,explanation,Experiment 1 (no preview),5,hidden,0.0,a,,a,3.0,,,2.0,1,0.0,3476.0
51,21.0,easy,explanation,Experiment 1 (no preview),6,hidden,0.0,b,,a,0.0,,,2.0,2,1.0,8784.0
51,21.0,easy,explanation,Experiment 1 (no preview),7,visible,0.0,b,2.0,a,3.0,,,2.0,2,1.0,3370.0
51,21.0,easy,explanation,Experiment 1 (no preview),8,hidden,0.0,b,,b,2.0,,,2.0,1,0.0,1871.0
51,21.0,easy,explanation,Experiment 1 (no preview),9,hidden,3.0,a,,a,2.0,,,1.0,1,1.0,856.0000000000582
51,21.0,easy,explanation,Experiment 1 (no preview),10,visible,3.0,a,1.0,a,0.0,,,1.0,1,1.0,1083.0
51,21.0,easy,explanation,Experiment 1 (no preview),11,visible,3.0,a,1.0,b,0.0,,,1.0,2,0.0,1343.0
51,21.0,easy,explanation,Experiment 1 (no preview),12,visible,0.0,a,2.0,b,2.0,,,2.0,2,1.0,7034.0
51,21.0,easy,explanation,Experiment 1 (no preview),13,hidden,2.0,a,,a,2.0,,,1.0,1,1.0,1005.0000000000582
51,21.0,easy,explanation,Experiment 1 (no preview),14,visible,3.0,a,0.0,a,2.0,,,1.0,1,1.0,751.0000000000582
51,21.0,easy,explanation,Experiment 1 (no preview),15,hidden,0.0,a,,a,0.0,,,2.0,1,0.0,1077.0
51,21.0,easy,explanation,Experiment 1 (no preview),16,visible,2.0,a,0.0,b,2.0,,,1.0,2,0.0,1121.0
51,21.0,easy,explanation,Experiment 1 (no preview),17,hidden,3.0,a,,b,2.0,,,1.0,2,0.0,1977.0
51,21.0,easy,explanation,Experiment 1 (no preview),18,hidden,3.0,b,,a,0.0,,,2.0,2,1.0,2395.0
51,21.0,easy,explanation,Experiment 1 (no preview),19,visible,0.0,a,2.0,a,0.0,,,2.0,1,0.0,1588.0
51,21.0,easy,explanation,Experiment 1 (no preview),20,hidden,3.0,a,,b,0.0,,,1.0,1,1.0,2470.0
52,22.0,hard,explanation,Experiment 1 (no preview),1,hidden,2.0,a,,b,1.0,,,2.0,2,1.0,2016.2570000238484
52,22.0,hard,explanation,Experiment 1 (no preview),2,hidden,0.0,a,,a,0.0,,,2.0,2,1.0,3416.234000023862
52,22.0,hard,explanation,Experiment 1 (no preview),3,hidden,3.0,a,,a,3.0,,,1.0,1,1.0,1035.2230000357376
52,22.0,hard,explanation,Experiment 1 (no preview),4,hidden,2.0,b,,a,1.0,,,1.0,2,0.0,832.7430000000168
52,22.0,hard,explanation,Experiment 1 (no preview),5,hidden,1.0,b,,b,2.0,,,1.0,2,0.0,3327.19899998809
52,22.0,hard,explanation,Experiment 1 (no preview),6,visible,0.0,b,3.0,b,3.0,,,2.0,2,1.0,2109.3940000238363
52,22.0,hard,explanation,Experiment 1 (no preview),7,visible,1.0,b,3.0,a,2.0,,,1.0,2,0.0,1973.3379999880565
52,22.0,hard,explanation,Experiment 1 (no preview),8,hidden,1.0,a,,a,0.0,,,2.0,1,0.0,671.2400000238558
52,22.0,hard,explanation,Experiment 1 (no preview),9,visible,0.0,a,3.0,a,0.0,,,2.0,1,0.0,808.1839999880758
52,22.0,hard,explanation,Experiment 1 (no preview),10,hidden,2.0,b,,b,3.0,,,1.0,2,0.0,333.2460000119172
52,22.0,hard,explanation,Experiment 1 (no preview),11,visible,2.0,b,1.0,a,1.0,,,1.0,2,0.0,1678.985999988101
52,22.0,hard,explanation,Experiment 1 (no preview),12,hidden,1.0,b,,a,2.0,,,1.0,2,0.0,2329.303000035754
52,22.0,hard,explanation,Experiment 1 (no preview),13,visible,3.0,b,2.0,b,0.0,,,2.0,2,1.0,1402.485999999975
52,22.0,hard,explanation,Experiment 1 (no preview),14,hidden,3.0,b,,a,2.0,,,2.0,2,1.0,2444.403000011924
52,22.0,hard,explanation,Experiment 1 (no preview),15,visible,3.0,a,0.0,b,3.0,,,1.0,2,0.0,1864.4070000238128
52,22.0,hard,explanation,Experiment 1 (no preview),16,visible,3.0,b,2.0,a,2.0,,,2.0,1,0.0,304.97299999999814
52,22.0,hard,explanation,Experiment 1 (no preview),17,hidden,3.0,b,,b,3.0,,,2.0,1,0.0,2319.735000023851
52,22.0,hard,explanation,Experiment 1 (no preview),18,visible,3.0,a,2.0,b,1.0,,,2.0,2,1.0,2807.789999999979
52,22.0,hard,explanation,Experiment 1 (no preview),19,visible,1.0,a,0.0,a,3.0,,,1.0,2,0.0,263.5260000357521
52,22.0,hard,explanation,Experiment 1 (no preview),20,visible,2.0,b,1.0,b,1.0,,,1.0,1,1.0,1009.1300000119372
54,22.0,hard,explanation,Experiment 1 (no preview),1,hidden,1.0,b,,b,2.0,,,1.0,2,0.0,5785.583000000013
54,22.0,hard,explanation,Experiment 1 (no preview),2,hidden,2.0,b,,b,3.0,,,1.0,1,1.0,2787.994000023842
54,22.0,hard,explanation,Experiment 1 (no preview),3,visible,2.0,b,1.0,a,1.0,,,1.0,1,1.0,2212.158999999985
54,22.0,hard,explanation,Experiment 1 (no preview),4,visible,3.0,a,0.0,b,3.0,,,1.0,2,0.0,5055.337
54,22.0,hard,explanation,Experiment 1 (no preview),5,hidden,1.0,a,,a,0.0,,,2.0,1,0.0,3892.0659999761847
54,22.0,hard,explanation,Experiment 1 (no preview),6,visible,0.0,b,3.0,b,3.0,,,2.0,1,0.0,8777.970000023837
54,22.0,hard,explanation,Experiment 1 (no preview),7,hidden,0.0,a,,a,0.0,,,2.0,2,1.0,3949.858999976132
54,22.0,hard,explanation,Experiment 1 (no preview),8,visible,0.0,a,3.0,a,0.0,,,2.0,2,1.0,2483.250000047672
54,22.0,hard,explanation,Experiment 1 (no preview),9,hidden,1.0,b,,a,2.0,,,1.0,2,0.0,2224.692999976164
54,22.0,hard,explanation,Experiment 1 (no preview),10,visible,3.0,a,2.0,b,1.0,,,2.0,2,1.0,12504.06200002384
54,22.0,hard,explanation,Experiment 1 (no preview),11,hidden,3.0,a,,a,3.0,,,1.0,2,0.0,10852.456999952325
54,22.0,hard,explanation,Experiment 1 (no preview),12,visible,3.0,b,2.0,b,0.0,,,2.0,1,0.0,2480.804999952321
54,22.0,hard,explanation,Experiment 1 (no preview),13,hidden,2.0,b,,a,1.0,,,1.0,2,0.0,4966.99099999998
54,22.0,hard,explanation,Experiment 1 (no preview),14,hidden,3.0,b,,a,2.0,,,2.0,1,0.0,16058.453999952297
54,22.0,hard,explanation,Experiment 1 (no preview),15,visible,1.0,b,3.0,a,2.0,,,1.0,1,1.0,3518.904999976163
54,22.0,hard,explanation,Experiment 1 (no preview),16,visible,3.0,b,2.0,a,2.0,,,2.0,1,0.0,700.7220000238158
54,22.0,hard,explanation,Experiment 1 (no preview),17,hidden,3.0,b,,b,3.0,,,2.0,2,1.0,9787.534999952302
54,22.0,hard,explanation,Experiment 1 (no preview),18,visible,2.0,b,1.0,b,1.0,,,1.0,1,1.0,4754.872000023839
54,22.0,hard,explanation,Experiment 1 (no preview),19,hidden,2.0,a,,b,1.0,,,2.0,1,0.0,4862.105000047712
54,22.0,hard,explanation,Experiment 1 (no preview),20,visible,1.0,a,0.0,a,3.0,,,1.0,2,0.0,3669.995999952313
53,22.0,hard,explanation,Experiment 1 (no preview),1,visible,1.0,b,3.0,a,2.0,,,1.0,2,0.0,2753.4969999940367
53,22.0,hard,explanation,Experiment 1 (no preview),2,hidden,3.0,b,,a,2.0,,,2.0,2,1.0,2219.45500001192
53,22.0,hard,explanation,Experiment 1 (no preview),3,visible,3.0,b,2.0,b,0.0,,,2.0,1,0.0,2903.937000011909
53,22.0,hard,explanation,Experiment 1 (no preview),4,visible,3.0,a,0.0,b,3.0,,,1.0,2,0.0,620.127000005974
53,22.0,hard,explanation,Experiment 1 (no preview),5,hidden,2.0,b,,a,1.0,,,1.0,1,1.0,1904.0840000000023
53,22.0,hard,explanation,Experiment 1 (no preview),6,hidden,3.0,a,,a,3.0,,,1.0,2,0.0,1536.7339999940305
53,22.0,hard,explanation,Experiment 1 (no preview),7,visible,2.0,b,1.0,a,1.0,,,1.0,2,0.0,487.66100001192535
53,22.0,hard,explanation,Experiment 1 (no preview),8,hidden,2.0,a,,b,1.0,,,2.0,2,1.0,1270.220999988087
53,22.0,hard,explanation,Experiment 1 (no preview),9,visible,1.0,a,0.0,a,3.0,,,1.0,2,0.0,6769.863999988069
53,22.0,hard,explanation,Experiment 1 (no preview),10,visible,3.0,a,2.0,b,1.0,,,2.0,2,1.0,2754.0330000119284
53,22.0,hard,explanation,Experiment 1 (no preview),11,hidden,1.0,b,,b,2.0,,,1.0,2,0.0,1286.7170000059414
53,22.0,hard,explanation,Experiment 1 (no preview),12,hidden,1.0,a,,a,0.0,,,2.0,1,0.0,7986.31399998808
53,22.0,hard,explanation,Experiment 1 (no preview),13,visible,0.0,b,3.0,b,3.0,,,2.0,2,1.0,737.74099999998
53,22.0,hard,explanation,Experiment 1 (no preview),14,hidden,3.0,b,,b,3.0,,,2.0,1,0.0,4769.610999988101
53,22.0,hard,explanation,Experiment 1 (no preview),15,visible,3.0,b,2.0,a,2.0,,,2.0,2,1.0,521.0120000119205
53,22.0,hard,explanation,Experiment 1 (no preview),16,hidden,0.0,a,,a,0.0,,,2.0,2,1.0,4086.539999999979
53,22.0,hard,explanation,Experiment 1 (no preview),17,visible,0.0,a,3.0,a,0.0,,,2.0,2,1.0,1937.5289999999804
53,22.0,hard,explanation,Experiment 1 (no preview),18,hidden,1.0,b,,a,2.0,,,1.0,2,0.0,386.8469999940135
53,22.0,hard,explanation,Experiment 1 (no preview),19,visible,2.0,b,1.0,b,1.0,,,1.0,1,1.0,2070.575000011944
53,22.0,hard,explanation,Experiment 1 (no preview),20,hidden,2.0,b,,b,3.0,,,1.0,2,0.0,570.2649999940186
55,22.0,hard,explanation,Experiment 1 (no preview),1,visible,0.0,a,3.0,a,0.0,,,2.0,1,0.0,6335.444999976171
55,22.0,hard,explanation,Experiment 1 (no preview),2,visible,3.0,a,0.0,b,3.0,,,1.0,2,0.0,803.9010000000126
55,22.0,hard,explanation,Experiment 1 (no preview),3,visible,1.0,a,0.0,a,3.0,,,1.0,1,1.0,2526.8550000000105
55,22.0,hard,explanation,Experiment 1 (no preview),4,visible,3.0,a,2.0,b,1.0,,,2.0,2,1.0,889.2599999761442
55,22.0,hard,explanation,Experiment 1 (no preview),5,visible,2.0,b,1.0,a,1.0,,,1.0,1,1.0,1154.8129999761586
55,22.0,hard,explanation,Experiment 1 (no preview),6,hidden,1.0,b,,a,2.0,,,1.0,2,0.0,4033.318999976153
55,22.0,hard,explanation,Experiment 1 (no preview),7,hidden,3.0,b,,b,3.0,,,2.0,2,1.0,1424.9719999761437
55,22.0,hard,explanation,Experiment 1 (no preview),8,hidden,1.0,b,,b,2.0,,,1.0,1,1.0,1579.5360000119254
55,22.0,hard,explanation,Experiment 1 (no preview),9,hidden,2.0,b,,b,3.0,,,1.0,1,1.0,691.6719999761553
55,22.0,hard,explanation,Experiment 1 (no preview),10,hidden,2.0,a,,b,1.0,,,2.0,1,0.0,647.8839999761549
55,22.0,hard,explanation,Experiment 1 (no preview),11,hidden,3.0,a,,a,3.0,,,1.0,2,0.0,706.0940000000119
55,22.0,hard,explanation,Experiment 1 (no preview),12,hidden,3.0,b,,a,2.0,,,2.0,1,0.0,1138.8850000119128
55,22.0,hard,explanation,Experiment 1 (no preview),13,visible,3.0,b,2.0,a,2.0,,,2.0,2,1.0,561.2809999761521
55,22.0,hard,explanation,Experiment 1 (no preview),14,visible,1.0,b,3.0,a,2.0,,,1.0,2,0.0,2073.931999999972
55,22.0,hard,explanation,Experiment 1 (no preview),15,hidden,1.0,a,,a,0.0,,,2.0,1,0.0,727.81099997618
55,22.0,hard,explanation,Experiment 1 (no preview),16,visible,0.0,b,3.0,b,3.0,,,2.0,2,1.0,988.2069999761296
55,22.0,hard,explanation,Experiment 1 (no preview),17,visible,2.0,b,1.0,b,1.0,,,1.0,1,1.0,985.8160000238568
55,22.0,hard,explanation,Experiment 1 (no preview),18,hidden,2.0,b,,a,1.0,,,1.0,2,0.0,678.0569999761647
55,22.0,hard,explanation,Experiment 1 (no preview),19,visible,3.0,b,2.0,b,0.0,,,2.0,2,1.0,1698.5089999761549
55,22.0,hard,explanation,Experiment 1 (no preview),20,hidden,0.0,a,,a,0.0,,,2.0,1,0.0,1129.438000011898
56,22.0,hard,explanation,Experiment 1 (no preview),1,visible,0.0,b,3.0,b,3.0,,,2.0,1,0.0,5923.750000002969
56,22.0,hard,explanation,Experiment 1 (no preview),2,visible,3.0,a,2.0,b,1.0,,,2.0,2,1.0,2451.4220000044734
56,22.0,hard,explanation,Experiment 1 (no preview),3,visible,1.0,b,3.0,a,2.0,,,1.0,2,0.0,2834.952000004472
56,22.0,hard,explanation,Experiment 1 (no preview),4,visible,3.0,b,2.0,a,2.0,,,2.0,2,1.0,2624.0630000044475
56,22.0,hard,explanation,Experiment 1 (no preview),5,hidden,2.0,a,,b,1.0,,,2.0,2,1.0,3520.608000004489
56,22.0,hard,explanation,Experiment 1 (no preview),6,visible,1.0,a,0.0,a,3.0,,,1.0,1,1.0,1541.765000004496
56,22.0,hard,explanation,Experiment 1 (no preview),7,visible,2.0,b,1.0,a,1.0,,,1.0,1,1.0,4371.212000001513
56,22.0,hard,explanation,Experiment 1 (no preview),8,hidden,3.0,a,,a,3.0,,,1.0,1,1.0,4681.563000000024
56,22.0,hard,explanation,Experiment 1 (no preview),9,hidden,3.0,b,,b,3.0,,,2.0,2,1.0,2447.5470000000205
56,22.0,hard,explanation,Experiment 1 (no preview),10,visible,3.0,b,2.0,b,0.0,,,2.0,2,1.0,1766.2910000000263
56,22.0,hard,explanation,Experiment 1 (no preview),11,hidden,1.0,b,,b,2.0,,,1.0,1,1.0,2558.229000004474
56,22.0,hard,explanation,Experiment 1 (no preview),12,visible,0.0,a,3.0,a,0.0,,,2.0,2,1.0,2425.926999998512
56,22.0,hard,explanation,Experiment 1 (no preview),13,hidden,1.0,b,,a,2.0,,,1.0,2,0.0,1823.496000001498
56,22.0,hard,explanation,Experiment 1 (no preview),14,visible,3.0,a,0.0,b,3.0,,,1.0,1,1.0,1184.7980000029784
56,22.0,hard,explanation,Experiment 1 (no preview),15,hidden,2.0,b,,a,1.0,,,1.0,2,0.0,2102.576000002969
56,22.0,hard,explanation,Experiment 1 (no preview),16,hidden,1.0,a,,a,0.0,,,2.0,1,0.0,3823.938000002992
56,22.0,hard,explanation,Experiment 1 (no preview),17,hidden,3.0,b,,a,2.0,,,2.0,2,1.0,1596.9120000029798
56,22.0,hard,explanation,Experiment 1 (no preview),18,hidden,2.0,b,,b,3.0,,,1.0,1,1.0,398.1860000029556
56,22.0,hard,explanation,Experiment 1 (no preview),19,hidden,0.0,a,,a,0.0,,,2.0,1,0.0,396.6579999999958
56,22.0,hard,explanation,Experiment 1 (no preview),20,visible,2.0,b,1.0,b,1.0,,,1.0,1,1.0,2258.2700000044424
57,22.0,hard,explanation,Experiment 1 (no preview),1,hidden,1.0,a,,a,0.0,,,2.0,2,1.0,7334.0
57,22.0,hard,explanation,Experiment 1 (no preview),2,hidden,2.0,b,,b,3.0,,,1.0,2,0.0,4113.000000000029
57,22.0,hard,explanation,Experiment 1 (no preview),3,visible,3.0,b,2.0,a,2.0,,,2.0,1,0.0,3404.0
57,22.0,hard,explanation,Experiment 1 (no preview),4,hidden,3.0,b,,b,3.0,,,2.0,2,1.0,2634.0
57,22.0,hard,explanation,Experiment 1 (no preview),5,visible,3.0,a,0.0,b,3.0,,,1.0,2,0.0,938.0
57,22.0,hard,explanation,Experiment 1 (no preview),6,hidden,2.0,a,,b,1.0,,,2.0,1,0.0,704.0
57,22.0,hard,explanation,Experiment 1 (no preview),7,visible,0.0,a,3.0,a,0.0,,,2.0,2,1.0,5014.0
57,22.0,hard,explanation,Experiment 1 (no preview),8,visible,2.0,b,1.0,b,1.0,,,1.0,2,0.0,694.0
57,22.0,hard,explanation,Experiment 1 (no preview),9,hidden,1.0,b,,a,2.0,,,1.0,2,0.0,772.0
57,22.0,hard,explanation,Experiment 1 (no preview),10,visible,1.0,a,0.0,a,3.0,,,1.0,1,1.0,810.0
57,22.0,hard,explanation,Experiment 1 (no preview),11,hidden,2.0,b,,a,1.0,,,1.0,1,1.0,3022.0
57,22.0,hard,explanation,Experiment 1 (no preview),12,hidden,3.0,a,,a,3.0,,,1.0,2,0.0,512.0
57,22.0,hard,explanation,Experiment 1 (no preview),13,visible,3.0,b,2.0,b,0.0,,,2.0,2,1.0,1045.0000000000582
57,22.0,hard,explanation,Experiment 1 (no preview),14,hidden,3.0,b,,a,2.0,,,2.0,1,0.0,1008.0
57,22.0,hard,explanation,Experiment 1 (no preview),15,visible,1.0,b,3.0,a,2.0,,,1.0,2,0.0,665.0
57,22.0,hard,explanation,Experiment 1 (no preview),16,visible,2.0,b,1.0,a,1.0,,,1.0,1,1.0,799.0
57,22.0,hard,explanation,Experiment 1 (no preview),17,hidden,0.0,a,,a,0.0,,,2.0,2,1.0,1145.0
57,22.0,hard,explanation,Experiment 1 (no preview),18,visible,0.0,b,3.0,b,3.0,,,2.0,2,1.0,836.0
57,22.0,hard,explanation,Experiment 1 (no preview),19,visible,3.0,a,2.0,b,1.0,,,2.0,2,1.0,667.0
57,22.0,hard,explanation,Experiment 1 (no preview),20,hidden,1.0,b,,b,2.0,,,1.0,1,1.0,2274.0
59,22.0,hard,explanation,Experiment 1 (no preview),1,hidden,3.0,b,,a,2.0,,,2.0,2,1.0,13253.845999964222
59,22.0,hard,explanation,Experiment 1 (no preview),2,hidden,1.0,b,,b,2.0,,,1.0,2,0.0,4916.491999988095
59,22.0,hard,explanation,Experiment 1 (no preview),3,hidden,1.0,a,,a,0.0,,,2.0,2,1.0,2065.9139999642503
59,22.0,hard,explanation,Experiment 1 (no preview),4,visible,0.0,b,3.0,b,3.0,,,2.0,2,1.0,5482.8520000000135
59,22.0,hard,explanation,Experiment 1 (no preview),5,hidden,0.0,a,,a,0.0,,,2.0,2,1.0,911.2170000000042
59,22.0,hard,explanation,Experiment 1 (no preview),6,hidden,3.0,b,,b,3.0,,,2.0,2,1.0,6634.547999976145
59,22.0,hard,explanation,Experiment 1 (no preview),7,visible,2.0,b,1.0,b,1.0,,,1.0,2,0.0,1561.58699996426
59,22.0,hard,explanation,Experiment 1 (no preview),8,hidden,2.0,a,,b,1.0,,,2.0,2,1.0,2876.355000011914
59,22.0,hard,explanation,Experiment 1 (no preview),9,visible,3.0,a,0.0,b,3.0,,,1.0,2,0.0,3410.2069999642554
59,22.0,hard,explanation,Experiment 1 (no preview),10,visible,3.0,a,2.0,b,1.0,,,2.0,2,1.0,2022.4069999761407
59,22.0,hard,explanation,Experiment 1 (no preview),11,hidden,2.0,b,,a,1.0,,,1.0,2,0.0,2946.4269999880926
59,22.0,hard,explanation,Experiment 1 (no preview),12,visible,1.0,a,0.0,a,3.0,,,1.0,2,0.0,2769.177999988082
59,22.0,hard,explanation,Experiment 1 (no preview),13,hidden,3.0,a,,a,3.0,,,1.0,2,0.0,6312.702999988105
59,22.0,hard,explanation,Experiment 1 (no preview),14,visible,0.0,a,3.0,a,0.0,,,2.0,2,1.0,703.2049999880837
59,22.0,hard,explanation,Experiment 1 (no preview),15,visible,3.0,b,2.0,a,2.0,,,2.0,2,1.0,725.5820000119274
59,22.0,hard,explanation,Experiment 1 (no preview),16,hidden,2.0,b,,b,3.0,,,1.0,2,0.0,636.0859999761451
59,22.0,hard,explanation,Experiment 1 (no preview),17,visible,3.0,b,2.0,b,0.0,,,2.0,2,1.0,7971.63400000002
59,22.0,hard,explanation,Experiment 1 (no preview),18,hidden,1.0,b,,a,2.0,,,1.0,2,0.0,5016.400000011898
59,22.0,hard,explanation,Experiment 1 (no preview),19,visible,1.0,b,3.0,a,2.0,,,1.0,2,0.0,710.0069999761763
59,22.0,hard,explanation,Experiment 1 (no preview),20,visible,2.0,b,1.0,a,1.0,,,1.0,2,0.0,538.6909999999916
58,22.0,hard,explanation,Experiment 1 (no preview),1,hidden,1.0,b,,a,2.0,,,1.0,2,0.0,14284.441999994044
58,22.0,hard,explanation,Experiment 1 (no preview),2,visible,3.0,a,0.0,b,3.0,,,1.0,2,0.0,5346.9809999940335
58,22.0,hard,explanation,Experiment 1 (no preview),3,visible,1.0,b,3.0,a,2.0,,,1.0,2,0.0,1160.8199999940407
58,22.0,hard,explanation,Experiment 1 (no preview),4,visible,2.0,b,1.0,a,1.0,,,1.0,1,1.0,1270.309999997029
58,22.0,hard,explanation,Experiment 1 (no preview),5,hidden,2.0,b,,a,1.0,,,1.0,1,1.0,3317.0149999970163
58,22.0,hard,explanation,Experiment 1 (no preview),6,hidden,1.0,b,,b,2.0,,,1.0,1,1.0,5296.82300000597
58,22.0,hard,explanation,Experiment 1 (no preview),7,hidden,1.0,a,,a,0.0,,,2.0,1,0.0,1615.1159999970114
58,22.0,hard,explanation,Experiment 1 (no preview),8,visible,0.0,a,3.0,a,0.0,,,2.0,2,1.0,7048.8210000059335
58,22.0,hard,explanation,Experiment 1 (no preview),9,hidden,3.0,b,,a,2.0,,,2.0,2,1.0,4161.65100000595
58,22.0,hard,explanation,Experiment 1 (no preview),10,visible,3.0,b,2.0,b,0.0,,,2.0,2,1.0,2639.985999999976
58,22.0,hard,explanation,Experiment 1 (no preview),11,visible,0.0,b,3.0,b,3.0,,,2.0,2,1.0,2232.658999994048
58,22.0,hard,explanation,Experiment 1 (no preview),12,visible,1.0,a,0.0,a,3.0,,,1.0,1,1.0,3083.573999996996
58,22.0,hard,explanation,Experiment 1 (no preview),13,visible,3.0,a,2.0,b,1.0,,,2.0,2,1.0,1586.2349999940488
58,22.0,hard,explanation,Experiment 1 (no preview),14,hidden,3.0,a,,a,3.0,,,1.0,2,0.0,4463.83999999403
58,22.0,hard,explanation,Experiment 1 (no preview),15,hidden,0.0,a,,a,0.0,,,2.0,2,1.0,2234.543999997026
58,22.0,hard,explanation,Experiment 1 (no preview),16,visible,2.0,b,1.0,b,1.0,,,1.0,1,1.0,881.5279999970226
58,22.0,hard,explanation,Experiment 1 (no preview),17,hidden,3.0,b,,b,3.0,,,2.0,2,1.0,2020.9980000000207
58,22.0,hard,explanation,Experiment 1 (no preview),18,hidden,2.0,b,,b,3.0,,,1.0,1,1.0,795.8959999940125
58,22.0,hard,explanation,Experiment 1 (no preview),19,visible,3.0,b,2.0,a,2.0,,,2.0,2,1.0,1003.7959999970044
58,22.0,hard,explanation,Experiment 1 (no preview),20,hidden,2.0,a,,b,1.0,,,2.0,2,1.0,4898.680999999982
60,22.0,hard,explanation,Experiment 1 (no preview),1,hidden,2.0,a,,b,1.0,,,2.0,1,0.0,5304.429000000004
60,22.0,hard,explanation,Experiment 1 (no preview),2,hidden,2.0,b,,b,3.0,,,1.0,2,0.0,6546.560000035766
60,22.0,hard,explanation,Experiment 1 (no preview),3,hidden,1.0,b,,b,2.0,,,1.0,2,0.0,5181.228000000003
60,22.0,hard,explanation,Experiment 1 (no preview),4,visible,3.0,b,2.0,b,0.0,,,2.0,2,1.0,4721.050000011921
60,22.0,hard,explanation,Experiment 1 (no preview),5,hidden,1.0,a,,a,0.0,,,2.0,2,1.0,3697.828000035777
60,22.0,hard,explanation,Experiment 1 (no preview),6,visible,0.0,a,3.0,a,0.0,,,2.0,2,1.0,2004.3300000000163
60,22.0,hard,explanation,Experiment 1 (no preview),7,hidden,0.0,a,,a,0.0,,,2.0,1,0.0,919.4440000357572
60,22.0,hard,explanation,Experiment 1 (no preview),8,hidden,3.0,b,,a,2.0,,,2.0,2,1.0,1353.2970000000205
60,22.0,hard,explanation,Experiment 1 (no preview),9,visible,2.0,b,1.0,b,1.0,,,1.0,2,0.0,1492.088999999978
60,22.0,hard,explanation,Experiment 1 (no preview),10,visible,3.0,b,2.0,a,2.0,,,2.0,1,0.0,677.6200000357348
60,22.0,hard,explanation,Experiment 1 (no preview),11,visible,1.0,b,3.0,a,2.0,,,1.0,1,1.0,1314.5310000000172
60,22.0,hard,explanation,Experiment 1 (no preview),12,hidden,3.0,b,,b,3.0,,,2.0,2,1.0,970.276000035752
60,22.0,hard,explanation,Experiment 1 (no preview),13,visible,0.0,b,3.0,b,3.0,,,2.0,1,0.0,1649.5800000476884
60,22.0,hard,explanation,Experiment 1 (no preview),14,visible,3.0,a,0.0,b,3.0,,,1.0,2,0.0,5380.277000000002
60,22.0,hard,explanation,Experiment 1 (no preview),15,visible,1.0,a,0.0,a,3.0,,,1.0,2,0.0,1787.451000000001
60,22.0,hard,explanation,Experiment 1 (no preview),16,visible,2.0,b,1.0,a,1.0,,,1.0,2,0.0,827.2680000119144
60,22.0,hard,explanation,Experiment 1 (no preview),17,hidden,2.0,b,,a,1.0,,,1.0,1,1.0,538.462000035739
60,22.0,hard,explanation,Experiment 1 (no preview),18,visible,3.0,a,2.0,b,1.0,,,2.0,2,1.0,362.34499999997206
60,22.0,hard,explanation,Experiment 1 (no preview),19,hidden,3.0,a,,a,3.0,,,1.0,2,0.0,988.1060000357684
60,22.0,hard,explanation,Experiment 1 (no preview),20,hidden,1.0,b,,a,2.0,,,1.0,2,0.0,399.7420000476996
61,22.0,hard,explanation,Experiment 1 (no preview),1,visible,2.0,b,1.0,b,1.0,,,1.0,2,0.0,8378.0
61,22.0,hard,explanation,Experiment 1 (no preview),2,hidden,2.0,b,,b,3.0,,,1.0,2,0.0,16328.0
61,22.0,hard,explanation,Experiment 1 (no preview),3,visible,3.0,b,2.0,a,2.0,,,2.0,1,0.0,4595.0
61,22.0,hard,explanation,Experiment 1 (no preview),4,hidden,1.0,b,,a,2.0,,,1.0,2,0.0,7078.0
61,22.0,hard,explanation,Experiment 1 (no preview),5,hidden,2.0,b,,a,1.0,,,1.0,2,0.0,4429.0
61,22.0,hard,explanation,Experiment 1 (no preview),6,hidden,2.0,a,,b,1.0,,,2.0,2,1.0,2045.0
61,22.0,hard,explanation,Experiment 1 (no preview),7,visible,3.0,b,2.0,b,0.0,,,2.0,2,1.0,3695.0
61,22.0,hard,explanation,Experiment 1 (no preview),8,visible,1.0,a,0.0,a,3.0,,,1.0,2,0.0,5413.0
61,22.0,hard,explanation,Experiment 1 (no preview),9,hidden,3.0,b,,a,2.0,,,2.0,2,1.0,5830.0
61,22.0,hard,explanation,Experiment 1 (no preview),10,visible,3.0,a,0.0,b,3.0,,,1.0,2,0.0,6747.0
61,22.0,hard,explanation,Experiment 1 (no preview),11,hidden,3.0,b,,b,3.0,,,2.0,2,1.0,7397.0
61,22.0,hard,explanation,Experiment 1 (no preview),12,hidden,1.0,b,,b,2.0,,,1.0,2,0.0,3531.0
61,22.0,hard,explanation,Experiment 1 (no preview),13,visible,1.0,b,3.0,a,2.0,,,1.0,2,0.0,6565.0
61,22.0,hard,explanation,Experiment 1 (no preview),14,hidden,0.0,a,,a,0.0,,,2.0,2,1.0,1764.0
61,22.0,hard,explanation,Experiment 1 (no preview),15,visible,2.0,b,1.0,a,1.0,,,1.0,1,1.0,1981.0
61,22.0,hard,explanation,Experiment 1 (no preview),16,visible,3.0,a,2.0,b,1.0,,,2.0,2,1.0,1214.0
61,22.0,hard,explanation,Experiment 1 (no preview),17,visible,0.0,b,3.0,b,3.0,,,2.0,2,1.0,798.0
61,22.0,hard,explanation,Experiment 1 (no preview),18,hidden,1.0,a,,a,0.0,,,2.0,2,1.0,2348.0
61,22.0,hard,explanation,Experiment 1 (no preview),19,hidden,3.0,a,,a,3.0,,,1.0,2,0.0,2981.0
61,22.0,hard,explanation,Experiment 1 (no preview),20,visible,0.0,a,3.0,a,0.0,,,2.0,2,1.0,1048.0
62,22.0,hard,explanation,Experiment 1 (no preview),1,visible,3.0,b,2.0,a,2.0,,,2.0,2,1.0,4271.795000047656
62,22.0,hard,explanation,Experiment 1 (no preview),2,hidden,3.0,a,,a,3.0,,,1.0,2,0.0,8466.323000047705
62,22.0,hard,explanation,Experiment 1 (no preview),3,hidden,1.0,b,,b,2.0,,,1.0,1,1.0,3816.8319999761297
62,22.0,hard,explanation,Experiment 1 (no preview),4,hidden,3.0,b,,a,2.0,,,2.0,1,0.0,25138.90100007155
62,22.0,hard,explanation,Experiment 1 (no preview),5,hidden,1.0,b,,a,2.0,,,1.0,2,0.0,1322.8349999761558
62,22.0,hard,explanation,Experiment 1 (no preview),6,visible,1.0,a,0.0,a,3.0,,,1.0,2,0.0,2807.6049999999814
62,22.0,hard,explanation,Experiment 1 (no preview),7,hidden,3.0,b,,b,3.0,,,2.0,1,0.0,2549.140000071551
62,22.0,hard,explanation,Experiment 1 (no preview),8,visible,0.0,a,3.0,a,0.0,,,2.0,2,1.0,577.5829999999842
62,22.0,hard,explanation,Experiment 1 (no preview),9,visible,3.0,b,2.0,b,0.0,,,2.0,1,0.0,1690.9069999761414
62,22.0,hard,explanation,Experiment 1 (no preview),10,hidden,0.0,a,,a,0.0,,,2.0,2,1.0,1398.7779999999912
62,22.0,hard,explanation,Experiment 1 (no preview),11,hidden,2.0,a,,b,1.0,,,2.0,2,1.0,1567.738000071549
62,22.0,hard,explanation,Experiment 1 (no preview),12,visible,2.0,b,1.0,b,1.0,,,1.0,1,1.0,2718.959999976156
62,22.0,hard,explanation,Experiment 1 (no preview),13,visible,2.0,b,1.0,a,1.0,,,1.0,1,1.0,1644.627999976161
62,22.0,hard,explanation,Experiment 1 (no preview),14,visible,3.0,a,0.0,b,3.0,,,1.0,1,1.0,1392.21900007152
62,22.0,hard,explanation,Experiment 1 (no preview),15,hidden,2.0,b,,a,1.0,,,1.0,1,1.0,1721.703999976162
62,22.0,hard,explanation,Experiment 1 (no preview),16,visible,3.0,a,2.0,b,1.0,,,2.0,2,1.0,723.9470000715228
62,22.0,hard,explanation,Experiment 1 (no preview),17,visible,1.0,b,3.0,a,2.0,,,1.0,2,0.0,1148.871999999974
62,22.0,hard,explanation,Experiment 1 (no preview),18,visible,0.0,b,3.0,b,3.0,,,2.0,1,0.0,3257.3240000000224
62,22.0,hard,explanation,Experiment 1 (no preview),19,hidden,1.0,a,,a,0.0,,,2.0,2,1.0,1066.7609999761337
62,22.0,hard,explanation,Experiment 1 (no preview),20,hidden,2.0,b,,b,3.0,,,1.0,2,0.0,496.50300004769815
