participant_id,fsm_number,fsm_type,test_condition,learning_condition,trial_number,trial_type,state_1,response_1,state_2,response_2,state_3,option_1,option_2,correctResponse,response,response_correct,response_time
1,22.0,hard,control,Experiment 1 (no preview),1,hidden,1.0,,,,3.0,ab,ba,ab,ba,0.0,4694.036000095366
1,22.0,hard,control,Experiment 1 (no preview),2,hidden,2.0,,,,1.0,ba,ab,ab,ab,1.0,6457.54800000001
1,22.0,hard,control,Experiment 1 (no preview),3,hidden,3.0,,,,1.0,ba,bb,bb,bb,1.0,7118.08800004769
1,22.0,hard,control,Experiment 1 (no preview),4,visible,0.0,b,3.0,,3.0,a,b,b,b,1.0,2537.9190000238304
1,22.0,hard,control,Experiment 1 (no preview),5,visible,1.0,a,1.0,,0.0,a,b,a,b,0.0,1656.1240000238467
1,22.0,hard,control,Experiment 1 (no preview),6,visible,3.0,a,2.0,,2.0,a,b,a,a,1.0,500.6550000715361
1,22.0,hard,control,Experiment 1 (no preview),7,visible,3.0,b,2.0,,1.0,a,b,b,a,0.0,16902.52200004767
1,22.0,hard,control,Experiment 1 (no preview),8,hidden,1.0,,,,2.0,ab,ba,ba,ba,1.0,1741.3000000476895
1,22.0,hard,control,Experiment 1 (no preview),9,visible,2.0,a,2.0,,2.0,a,b,a,a,1.0,577.4260000715149
1,22.0,hard,control,Experiment 1 (no preview),10,hidden,0.0,,,,3.0,aa,ab,ab,ab,1.0,2060.771000000008
1,22.0,hard,control,Experiment 1 (no preview),11,hidden,0.0,,,,0.0,aa,bb,aa,aa,1.0,4037.4220000715286
1,22.0,hard,control,Experiment 1 (no preview),12,visible,2.0,a,2.0,,0.0,a,b,b,b,1.0,1254.094000047684
1,22.0,hard,control,Experiment 1 (no preview),13,hidden,2.0,,,,3.0,ba,ab,ba,ba,1.0,3344.33400007154
1,22.0,hard,control,Experiment 1 (no preview),14,visible,2.0,a,2.0,,1.0,a,b,b,b,1.0,787.7590000476921
1,22.0,hard,control,Experiment 1 (no preview),15,hidden,1.0,,,,0.0,aa,bb,aa,bb,0.0,1218.9990000238176
1,22.0,hard,control,Experiment 1 (no preview),16,visible,1.0,b,1.0,,3.0,a,b,b,a,0.0,969.576000047673
1,22.0,hard,control,Experiment 1 (no preview),17,visible,0.0,a,3.0,,0.0,a,b,a,a,1.0,2548.6330000715097
1,22.0,hard,control,Experiment 1 (no preview),18,hidden,1.0,,,,3.0,aa,ba,aa,ba,0.0,2654.304000071541
1,22.0,hard,control,Experiment 1 (no preview),19,hidden,3.0,,,,3.0,aa,ba,aa,aa,1.0,1710.405000000028
1,22.0,hard,control,Experiment 1 (no preview),20,visible,2.0,b,1.0,,0.0,a,b,a,b,0.0,1268.3059999999823
6,22.0,hard,control,Experiment 1 (no preview),1,hidden,1.0,,,,2.0,ab,ba,ba,ba,1.0,11974.0
6,22.0,hard,control,Experiment 1 (no preview),2,hidden,3.0,,,,1.0,ba,bb,bb,ba,0.0,40175.0
6,22.0,hard,control,Experiment 1 (no preview),3,hidden,1.0,,,,3.0,ab,ba,ab,ab,1.0,6540.0
6,22.0,hard,control,Experiment 1 (no preview),4,visible,0.0,b,3.0,,3.0,a,b,b,b,1.0,3124.0
6,22.0,hard,control,Experiment 1 (no preview),5,visible,1.0,a,1.0,,0.0,a,b,a,b,0.0,16208.0
6,22.0,hard,control,Experiment 1 (no preview),6,hidden,2.0,,,,3.0,ba,ab,ba,ab,0.0,5274.0
6,22.0,hard,control,Experiment 1 (no preview),7,hidden,0.0,,,,0.0,aa,bb,aa,aa,1.0,2990.0
6,22.0,hard,control,Experiment 1 (no preview),8,hidden,1.0,,,,3.0,aa,ba,aa,ba,0.0,3973.0
6,22.0,hard,control,Experiment 1 (no preview),9,visible,1.0,b,1.0,,3.0,a,b,b,a,0.0,7556.0
6,22.0,hard,control,Experiment 1 (no preview),10,visible,2.0,a,2.0,,0.0,a,b,b,b,1.0,4991.000000000058
6,22.0,hard,control,Experiment 1 (no preview),11,hidden,1.0,,,,0.0,aa,bb,aa,aa,1.0,16356.000000000058
6,22.0,hard,control,Experiment 1 (no preview),12,hidden,0.0,,,,3.0,aa,ab,ab,aa,0.0,10474.000000000058
6,22.0,hard,control,Experiment 1 (no preview),13,visible,0.0,a,3.0,,0.0,a,b,a,a,1.0,4707.000000000058
6,22.0,hard,control,Experiment 1 (no preview),14,hidden,3.0,,,,3.0,aa,ba,aa,aa,1.0,3273.0
6,22.0,hard,control,Experiment 1 (no preview),15,visible,2.0,a,2.0,,2.0,a,b,a,a,1.0,2240.0
6,22.0,hard,control,Experiment 1 (no preview),16,hidden,2.0,,,,1.0,ba,ab,ab,ba,0.0,1840.0000000000584
6,22.0,hard,control,Experiment 1 (no preview),17,visible,3.0,b,2.0,,1.0,a,b,b,a,0.0,806.0
6,22.0,hard,control,Experiment 1 (no preview),18,visible,2.0,b,1.0,,0.0,a,b,a,a,1.0,5490.0
6,22.0,hard,control,Experiment 1 (no preview),19,visible,3.0,a,2.0,,2.0,a,b,a,a,1.0,557.0
6,22.0,hard,control,Experiment 1 (no preview),20,visible,2.0,a,2.0,,1.0,a,b,b,b,1.0,3790.000000000058
8,21.0,easy,control,Experiment 1 (no preview),1,visible,0.0,b,2.0,,3.0,a,b,a,a,1.0,1922.0519999880928
8,21.0,easy,control,Experiment 1 (no preview),2,visible,3.0,b,3.0,,0.0,a,b,a,a,1.0,5631.573000011907
8,21.0,easy,control,Experiment 1 (no preview),3,hidden,2.0,,,,1.0,ab,aa,aa,aa,1.0,14337.371999976169
8,21.0,easy,control,Experiment 1 (no preview),4,hidden,3.0,,,,1.0,aa,ba,ba,ba,1.0,6720.879999976169
8,21.0,easy,control,Experiment 1 (no preview),5,visible,0.0,b,2.0,,2.0,a,b,b,b,1.0,6901.1720000000205
8,21.0,easy,control,Experiment 1 (no preview),6,visible,3.0,b,3.0,,3.0,a,b,b,a,0.0,16630.997000011906
8,21.0,easy,control,Experiment 1 (no preview),7,hidden,0.0,,,,3.0,ab,aa,aa,aa,1.0,7420.890000011946
8,21.0,easy,control,Experiment 1 (no preview),8,hidden,0.0,,,,0.0,aa,ab,aa,aa,1.0,2334.228000000003
8,21.0,easy,control,Experiment 1 (no preview),9,visible,0.0,a,2.0,,2.0,a,b,b,b,1.0,1754.857000023825
8,21.0,easy,control,Experiment 1 (no preview),10,visible,0.0,a,2.0,,3.0,a,b,a,a,1.0,1567.335000011895
8,21.0,easy,control,Experiment 1 (no preview),11,visible,2.0,b,2.0,,2.0,a,b,b,b,1.0,1091.6669999761507
8,21.0,easy,control,Experiment 1 (no preview),12,hidden,3.0,,,,3.0,bb,ba,bb,ba,0.0,5413.146999999997
8,21.0,easy,control,Experiment 1 (no preview),13,hidden,3.0,,,,2.0,aa,bb,aa,bb,0.0,7910.343999976176
8,21.0,easy,control,Experiment 1 (no preview),14,hidden,3.0,,,,2.0,ab,ba,ab,ab,1.0,3826.4679999999935
8,21.0,easy,control,Experiment 1 (no preview),15,visible,2.0,a,3.0,,3.0,a,b,b,a,0.0,4726.317999988096
8,21.0,easy,control,Experiment 1 (no preview),16,visible,2.0,a,3.0,,1.0,a,b,a,a,1.0,7516.309000000008
8,21.0,easy,control,Experiment 1 (no preview),17,hidden,2.0,,,,2.0,aa,bb,bb,bb,1.0,2553.434000023816
8,21.0,easy,control,Experiment 1 (no preview),18,hidden,2.0,,,,3.0,aa,ab,ab,aa,0.0,4317.378000023833
8,21.0,easy,control,Experiment 1 (no preview),19,visible,0.0,a,2.0,,0.0,a,b,a,a,1.0,8868.403000023856
8,21.0,easy,control,Experiment 1 (no preview),20,hidden,0.0,,,,2.0,aa,bb,bb,bb,1.0,2223.962000011932
11,21.0,easy,control,Experiment 1 (no preview),1,visible,0.0,a,2.0,,3.0,a,b,a,a,1.0,5270.738000000187
11,21.0,easy,control,Experiment 1 (no preview),2,visible,2.0,a,3.0,,1.0,a,b,a,a,1.0,3877.356000000204
11,21.0,easy,control,Experiment 1 (no preview),3,hidden,3.0,,,,3.0,bb,ba,bb,bb,1.0,6612.521000000183
11,21.0,easy,control,Experiment 1 (no preview),4,visible,3.0,b,3.0,,3.0,a,b,b,b,1.0,4438.461000000185
11,21.0,easy,control,Experiment 1 (no preview),5,hidden,0.0,,,,3.0,ab,aa,aa,ab,0.0,12846.28300000017
11,21.0,easy,control,Experiment 1 (no preview),6,visible,0.0,a,2.0,,2.0,a,b,b,b,1.0,12574.897999999812
11,21.0,easy,control,Experiment 1 (no preview),7,hidden,2.0,,,,3.0,aa,ab,ab,ab,1.0,15977.854999999809
11,21.0,easy,control,Experiment 1 (no preview),8,visible,0.0,a,2.0,,0.0,a,b,a,a,1.0,7661.0349999998
11,21.0,easy,control,Experiment 1 (no preview),9,hidden,0.0,,,,0.0,aa,ab,aa,ab,0.0,13172.994000000355
11,21.0,easy,control,Experiment 1 (no preview),10,hidden,2.0,,,,2.0,aa,bb,bb,bb,1.0,4824.79600000038
11,21.0,easy,control,Experiment 1 (no preview),11,visible,0.0,b,2.0,,2.0,a,b,b,b,1.0,1705.432000000379
11,21.0,easy,control,Experiment 1 (no preview),12,hidden,3.0,,,,1.0,aa,ba,ba,aa,0.0,2999.2569999998086
11,21.0,easy,control,Experiment 1 (no preview),13,hidden,0.0,,,,2.0,aa,bb,bb,bb,1.0,14530.047999999602
11,21.0,easy,control,Experiment 1 (no preview),14,hidden,3.0,,,,2.0,ab,ba,ab,ab,1.0,7407.605999999796
11,21.0,easy,control,Experiment 1 (no preview),15,visible,3.0,b,3.0,,0.0,a,b,a,a,1.0,6666.179000000353
11,21.0,easy,control,Experiment 1 (no preview),16,hidden,3.0,,,,2.0,aa,bb,aa,aa,1.0,8840.878000000026
11,21.0,easy,control,Experiment 1 (no preview),17,visible,2.0,a,3.0,,3.0,a,b,b,b,1.0,4505.375
11,21.0,easy,control,Experiment 1 (no preview),18,visible,2.0,b,2.0,,2.0,a,b,b,b,1.0,1527.1720000000205
11,21.0,easy,control,Experiment 1 (no preview),19,hidden,2.0,,,,1.0,ab,aa,aa,aa,1.0,4756.561999999976
11,21.0,easy,control,Experiment 1 (no preview),20,visible,0.0,b,2.0,,3.0,a,b,a,a,1.0,1799.6849999999977
12,22.0,hard,control,Experiment 1 (no preview),1,visible,2.0,a,2.0,,2.0,a,b,a,a,1.0,1604.373999997013
12,22.0,hard,control,Experiment 1 (no preview),2,hidden,1.0,,,,3.0,aa,ba,aa,ba,0.0,2489.596999997011
12,22.0,hard,control,Experiment 1 (no preview),3,hidden,1.0,,,,0.0,aa,bb,aa,bb,0.0,2771.6080000089423
12,22.0,hard,control,Experiment 1 (no preview),4,hidden,0.0,,,,0.0,aa,bb,aa,aa,1.0,971.681999997032
12,22.0,hard,control,Experiment 1 (no preview),5,hidden,1.0,,,,3.0,ab,ba,ab,ba,0.0,2935.7289999970235
12,22.0,hard,control,Experiment 1 (no preview),6,visible,3.0,a,2.0,,2.0,a,b,a,a,1.0,3050.599999997008
12,22.0,hard,control,Experiment 1 (no preview),7,hidden,3.0,,,,3.0,aa,ba,aa,ba,0.0,3208.829999999987
12,22.0,hard,control,Experiment 1 (no preview),8,hidden,0.0,,,,3.0,aa,ab,ab,aa,0.0,4209.361999999994
12,22.0,hard,control,Experiment 1 (no preview),9,hidden,2.0,,,,1.0,ba,ab,ab,ab,1.0,3229.3060000059486
12,22.0,hard,control,Experiment 1 (no preview),10,visible,0.0,a,3.0,,0.0,a,b,a,a,1.0,6820.135000000009
12,22.0,hard,control,Experiment 1 (no preview),11,hidden,1.0,,,,2.0,ab,ba,ba,ba,1.0,5184.1479999999865
12,22.0,hard,control,Experiment 1 (no preview),12,visible,2.0,a,2.0,,0.0,a,b,b,b,1.0,724.310000005964
12,22.0,hard,control,Experiment 1 (no preview),13,visible,0.0,b,3.0,,3.0,a,b,b,a,0.0,5625.325000000012
12,22.0,hard,control,Experiment 1 (no preview),14,hidden,2.0,,,,3.0,ba,ab,ba,ba,1.0,3669.547000000021
12,22.0,hard,control,Experiment 1 (no preview),15,hidden,3.0,,,,1.0,ba,bb,bb,bb,1.0,2866.570000000007
12,22.0,hard,control,Experiment 1 (no preview),16,visible,1.0,b,1.0,,3.0,a,b,b,b,1.0,4386.199000000022
12,22.0,hard,control,Experiment 1 (no preview),17,visible,1.0,a,1.0,,0.0,a,b,a,b,0.0,994.6910000029602
12,22.0,hard,control,Experiment 1 (no preview),18,visible,2.0,b,1.0,,0.0,a,b,a,a,1.0,574.8340000089374
12,22.0,hard,control,Experiment 1 (no preview),19,visible,3.0,b,2.0,,1.0,a,b,b,b,1.0,1244.078000005975
12,22.0,hard,control,Experiment 1 (no preview),20,visible,2.0,a,2.0,,1.0,a,b,b,b,1.0,758.1160000030068
22,21.0,easy,control,Experiment 1 (no preview),1,visible,3.0,b,3.0,,0.0,a,b,a,a,1.0,1417.8850000000093
22,21.0,easy,control,Experiment 1 (no preview),2,visible,0.0,a,2.0,,2.0,a,b,b,b,1.0,1752.949000017892
22,21.0,easy,control,Experiment 1 (no preview),3,hidden,2.0,,,,3.0,aa,ab,ab,aa,0.0,13720.443999999989
22,21.0,easy,control,Experiment 1 (no preview),4,hidden,3.0,,,,2.0,ab,ba,ab,ab,1.0,12778.277000005968
22,21.0,easy,control,Experiment 1 (no preview),5,visible,0.0,b,2.0,,2.0,a,b,b,b,1.0,2950.056000011915
22,21.0,easy,control,Experiment 1 (no preview),6,hidden,2.0,,,,1.0,ab,aa,aa,aa,1.0,4013.847999999998
22,21.0,easy,control,Experiment 1 (no preview),7,visible,2.0,a,3.0,,1.0,a,b,a,a,1.0,2259.749999994063
22,21.0,easy,control,Experiment 1 (no preview),8,hidden,3.0,,,,1.0,aa,ba,ba,ba,1.0,6708.94800000597
22,21.0,easy,control,Experiment 1 (no preview),9,hidden,3.0,,,,3.0,bb,ba,bb,bb,1.0,2470.8640000000014
22,21.0,easy,control,Experiment 1 (no preview),10,hidden,3.0,,,,2.0,aa,bb,aa,aa,1.0,6394.07000001194
22,21.0,easy,control,Experiment 1 (no preview),11,visible,3.0,b,3.0,,3.0,a,b,b,a,0.0,1973.8960000119405
22,21.0,easy,control,Experiment 1 (no preview),12,visible,0.0,b,2.0,,3.0,a,b,a,a,1.0,873.3159999999916
22,21.0,easy,control,Experiment 1 (no preview),13,visible,2.0,b,2.0,,2.0,a,b,b,b,1.0,542.5069999999832
22,21.0,easy,control,Experiment 1 (no preview),14,hidden,0.0,,,,2.0,aa,bb,bb,aa,0.0,562.268999994034
22,21.0,easy,control,Experiment 1 (no preview),15,hidden,2.0,,,,2.0,aa,bb,bb,bb,1.0,937.699000017892
22,21.0,easy,control,Experiment 1 (no preview),16,visible,0.0,a,2.0,,0.0,a,b,a,a,1.0,475.946000017866
22,21.0,easy,control,Experiment 1 (no preview),17,visible,2.0,a,3.0,,3.0,a,b,b,a,0.0,1413.0059999940568
22,21.0,easy,control,Experiment 1 (no preview),18,visible,0.0,a,2.0,,3.0,a,b,a,a,1.0,3835.087000011932
22,21.0,easy,control,Experiment 1 (no preview),19,hidden,0.0,,,,0.0,aa,ab,aa,ab,0.0,2545.481000005966
22,21.0,easy,control,Experiment 1 (no preview),20,hidden,0.0,,,,3.0,ab,aa,aa,aa,1.0,1162.275000017893
24,21.0,easy,control,Experiment 1 (no preview),1,hidden,0.0,,,,3.0,ab,aa,aa,ab,0.0,10225.615000023856
24,21.0,easy,control,Experiment 1 (no preview),2,hidden,3.0,,,,2.0,aa,bb,aa,aa,1.0,5228.32699999999
24,21.0,easy,control,Experiment 1 (no preview),3,visible,0.0,b,2.0,,2.0,a,b,b,a,0.0,4055.72799995233
24,21.0,easy,control,Experiment 1 (no preview),4,visible,0.0,a,2.0,,0.0,a,b,a,b,0.0,2357.356000023836
24,21.0,easy,control,Experiment 1 (no preview),5,visible,2.0,a,3.0,,3.0,a,b,b,b,1.0,3186.895999976143
24,21.0,easy,control,Experiment 1 (no preview),6,visible,3.0,b,3.0,,3.0,a,b,b,b,1.0,1353.3219999999856
24,21.0,easy,control,Experiment 1 (no preview),7,hidden,3.0,,,,2.0,ab,ba,ab,ab,1.0,3047.1140000238665
24,21.0,easy,control,Experiment 1 (no preview),8,hidden,0.0,,,,0.0,aa,ab,aa,aa,1.0,4929.575000000012
24,21.0,easy,control,Experiment 1 (no preview),9,visible,2.0,a,3.0,,1.0,a,b,a,a,1.0,3247.667999952333
24,21.0,easy,control,Experiment 1 (no preview),10,hidden,2.0,,,,2.0,aa,bb,bb,bb,1.0,1676.295999952301
24,21.0,easy,control,Experiment 1 (no preview),11,visible,3.0,b,3.0,,0.0,a,b,a,b,0.0,1642.4479999523028
24,21.0,easy,control,Experiment 1 (no preview),12,visible,0.0,a,2.0,,2.0,a,b,b,a,0.0,1700.969999999972
24,21.0,easy,control,Experiment 1 (no preview),13,visible,2.0,b,2.0,,2.0,a,b,b,b,1.0,1414.229000023799
24,21.0,easy,control,Experiment 1 (no preview),14,visible,0.0,a,2.0,,3.0,a,b,a,a,1.0,1046.1310000000522
24,21.0,easy,control,Experiment 1 (no preview),15,hidden,2.0,,,,1.0,ab,aa,aa,aa,1.0,1531.1569999761414
24,21.0,easy,control,Experiment 1 (no preview),16,hidden,3.0,,,,1.0,aa,ba,ba,aa,0.0,1490.042999952333
24,21.0,easy,control,Experiment 1 (no preview),17,visible,0.0,b,2.0,,3.0,a,b,a,b,0.0,2107.4400000238093
24,21.0,easy,control,Experiment 1 (no preview),18,hidden,0.0,,,,2.0,aa,bb,bb,bb,1.0,4926.122000047704
24,21.0,easy,control,Experiment 1 (no preview),19,hidden,3.0,,,,3.0,bb,ba,bb,bb,1.0,2015.329999952344
24,21.0,easy,control,Experiment 1 (no preview),20,hidden,2.0,,,,3.0,aa,ab,ab,ab,1.0,2056.2420000476995
34,22.0,hard,control,Experiment 1 (no preview),1,visible,3.0,a,2.0,,2.0,a,b,a,a,1.0,2838.598000000551
34,22.0,hard,control,Experiment 1 (no preview),2,visible,0.0,a,3.0,,0.0,a,b,a,a,1.0,5071.777999999991
34,22.0,hard,control,Experiment 1 (no preview),3,visible,2.0,a,2.0,,1.0,a,b,b,b,1.0,805.0519999997923
34,22.0,hard,control,Experiment 1 (no preview),4,hidden,1.0,,,,0.0,aa,bb,aa,aa,1.0,7655.270000000019
34,22.0,hard,control,Experiment 1 (no preview),5,hidden,2.0,,,,3.0,ba,ab,ba,ab,0.0,3188.4710000005434
34,22.0,hard,control,Experiment 1 (no preview),6,visible,0.0,b,3.0,,3.0,a,b,b,b,1.0,3005.539000000397
34,22.0,hard,control,Experiment 1 (no preview),7,hidden,3.0,,,,3.0,aa,ba,aa,aa,1.0,4388.703000000387
34,22.0,hard,control,Experiment 1 (no preview),8,visible,3.0,b,2.0,,1.0,a,b,b,a,0.0,2688.432000000379
34,22.0,hard,control,Experiment 1 (no preview),9,visible,2.0,a,2.0,,2.0,a,b,a,a,1.0,755.3140000001877
34,22.0,hard,control,Experiment 1 (no preview),10,hidden,1.0,,,,2.0,ab,ba,ba,ab,0.0,3438.593000000401
34,22.0,hard,control,Experiment 1 (no preview),11,hidden,0.0,,,,3.0,aa,ab,ab,ab,1.0,4605.571000000578
34,22.0,hard,control,Experiment 1 (no preview),12,visible,1.0,a,1.0,,0.0,a,b,a,b,0.0,1022.158000000578
34,22.0,hard,control,Experiment 1 (no preview),13,hidden,1.0,,,,3.0,ab,ba,ab,ab,1.0,2821.780000000377
34,22.0,hard,control,Experiment 1 (no preview),14,visible,2.0,b,1.0,,0.0,a,b,a,b,0.0,3305.400000000547
34,22.0,hard,control,Experiment 1 (no preview),15,hidden,2.0,,,,1.0,ba,ab,ab,ab,1.0,4771.753000000375
34,22.0,hard,control,Experiment 1 (no preview),16,hidden,0.0,,,,0.0,aa,bb,aa,aa,1.0,2205.5510000002105
34,22.0,hard,control,Experiment 1 (no preview),17,hidden,3.0,,,,1.0,ba,bb,bb,ba,0.0,5322.060000000172
34,22.0,hard,control,Experiment 1 (no preview),18,hidden,1.0,,,,3.0,aa,ba,aa,aa,1.0,4638.429000000586
34,22.0,hard,control,Experiment 1 (no preview),19,visible,1.0,b,1.0,,3.0,a,b,b,b,1.0,2588.855000000214
34,22.0,hard,control,Experiment 1 (no preview),20,visible,2.0,a,2.0,,0.0,a,b,b,a,0.0,1438.544000000169
35,22.0,hard,control,Experiment 1 (no preview),1,visible,3.0,b,2.0,,1.0,a,b,b,b,1.0,4644.16999990464
35,22.0,hard,control,Experiment 1 (no preview),2,hidden,3.0,,,,1.0,ba,bb,bb,bb,1.0,5883.668999976129
35,22.0,hard,control,Experiment 1 (no preview),3,hidden,0.0,,,,3.0,aa,ab,ab,ab,1.0,4620.967999904649
35,22.0,hard,control,Experiment 1 (no preview),4,visible,1.0,a,1.0,,0.0,a,b,a,b,0.0,3828.5269999046577
35,22.0,hard,control,Experiment 1 (no preview),5,visible,0.0,b,3.0,,3.0,a,b,b,b,1.0,1079.7299999046372
35,22.0,hard,control,Experiment 1 (no preview),6,hidden,2.0,,,,3.0,ba,ab,ba,ab,0.0,1529.9069999284693
35,22.0,hard,control,Experiment 1 (no preview),7,hidden,0.0,,,,0.0,aa,bb,aa,bb,0.0,1115.0689999284805
35,22.0,hard,control,Experiment 1 (no preview),8,visible,2.0,a,2.0,,1.0,a,b,b,b,1.0,2220.658999904641
35,22.0,hard,control,Experiment 1 (no preview),9,visible,2.0,a,2.0,,0.0,a,b,b,b,1.0,1016.6510000000126
35,22.0,hard,control,Experiment 1 (no preview),10,visible,2.0,b,1.0,,0.0,a,b,a,b,0.0,810.6969999046414
35,22.0,hard,control,Experiment 1 (no preview),11,hidden,1.0,,,,3.0,aa,ba,aa,ba,0.0,4969.851999904611
35,22.0,hard,control,Experiment 1 (no preview),12,visible,3.0,a,2.0,,2.0,a,b,a,a,1.0,1977.0909999523428
35,22.0,hard,control,Experiment 1 (no preview),13,visible,1.0,b,1.0,,3.0,a,b,b,a,0.0,2631.0589999761432
35,22.0,hard,control,Experiment 1 (no preview),14,hidden,1.0,,,,3.0,ab,ba,ab,ab,1.0,6324.249999952328
35,22.0,hard,control,Experiment 1 (no preview),15,hidden,1.0,,,,2.0,ab,ba,ba,ba,1.0,1447.3519999761484
35,22.0,hard,control,Experiment 1 (no preview),16,hidden,1.0,,,,0.0,aa,bb,aa,bb,0.0,2673.158999976178
35,22.0,hard,control,Experiment 1 (no preview),17,visible,0.0,a,3.0,,0.0,a,b,a,b,0.0,2904.5139999761595
35,22.0,hard,control,Experiment 1 (no preview),18,hidden,3.0,,,,3.0,aa,ba,aa,ba,0.0,5031.380999952322
35,22.0,hard,control,Experiment 1 (no preview),19,visible,2.0,a,2.0,,2.0,a,b,a,a,1.0,1456.8679999523447
35,22.0,hard,control,Experiment 1 (no preview),20,hidden,2.0,,,,1.0,ba,ab,ab,ab,1.0,3677.843999952311
36,22.0,hard,control,Experiment 1 (no preview),1,hidden,0.0,,,,3.0,aa,ab,ab,aa,0.0,10954.262999999975
36,22.0,hard,control,Experiment 1 (no preview),2,visible,1.0,b,1.0,,3.0,a,b,b,b,1.0,3164.2429999999003
36,22.0,hard,control,Experiment 1 (no preview),3,hidden,3.0,,,,3.0,aa,ba,aa,aa,1.0,10044.432999999904
36,22.0,hard,control,Experiment 1 (no preview),4,visible,2.0,a,2.0,,1.0,a,b,b,b,1.0,5549.065999999992
36,22.0,hard,control,Experiment 1 (no preview),5,hidden,0.0,,,,0.0,aa,bb,aa,bb,0.0,6820.686999999918
36,22.0,hard,control,Experiment 1 (no preview),6,visible,0.0,b,3.0,,3.0,a,b,b,b,1.0,3784.063000000024
36,22.0,hard,control,Experiment 1 (no preview),7,visible,2.0,a,2.0,,0.0,a,b,b,b,1.0,3840.818000000029
36,22.0,hard,control,Experiment 1 (no preview),8,hidden,1.0,,,,3.0,aa,ba,aa,ba,0.0,5227.128000000026
36,22.0,hard,control,Experiment 1 (no preview),9,hidden,2.0,,,,3.0,ba,ab,ba,ba,1.0,3052.661000000022
36,22.0,hard,control,Experiment 1 (no preview),10,visible,3.0,a,2.0,,2.0,a,b,a,a,1.0,1883.781000000076
36,22.0,hard,control,Experiment 1 (no preview),11,visible,3.0,b,2.0,,1.0,a,b,b,b,1.0,3524.5710000000545
36,22.0,hard,control,Experiment 1 (no preview),12,visible,1.0,a,1.0,,0.0,a,b,a,b,0.0,1452.8510000000242
36,22.0,hard,control,Experiment 1 (no preview),13,hidden,3.0,,,,1.0,ba,bb,bb,bb,1.0,2257.360000000044
36,22.0,hard,control,Experiment 1 (no preview),14,visible,2.0,a,2.0,,2.0,a,b,a,a,1.0,623.1199999999953
36,22.0,hard,control,Experiment 1 (no preview),15,visible,2.0,b,1.0,,0.0,a,b,a,b,0.0,444.8879999998608
36,22.0,hard,control,Experiment 1 (no preview),16,visible,0.0,a,3.0,,0.0,a,b,a,b,0.0,2421.3880000000354
36,22.0,hard,control,Experiment 1 (no preview),17,hidden,1.0,,,,0.0,aa,bb,aa,bb,0.0,3440.112000000023
36,22.0,hard,control,Experiment 1 (no preview),18,hidden,1.0,,,,3.0,ab,ba,ab,ba,0.0,3185.066999999981
36,22.0,hard,control,Experiment 1 (no preview),19,hidden,1.0,,,,2.0,ab,ba,ba,ab,0.0,8698.76199999993
36,22.0,hard,control,Experiment 1 (no preview),20,hidden,2.0,,,,1.0,ba,ab,ab,ab,1.0,4388.96599999984
37,22.0,hard,control,Experiment 1 (no preview),1,hidden,1.0,,,,2.0,ab,ba,ba,ab,0.0,6330.464999998512
37,22.0,hard,control,Experiment 1 (no preview),2,visible,0.0,a,3.0,,0.0,a,b,a,a,1.0,2215.102999999246
37,22.0,hard,control,Experiment 1 (no preview),3,visible,1.0,b,1.0,,3.0,a,b,b,a,0.0,2083.325000000012
37,22.0,hard,control,Experiment 1 (no preview),4,hidden,2.0,,,,3.0,ba,ab,ba,ba,1.0,4755.4819999992615
37,22.0,hard,control,Experiment 1 (no preview),5,visible,1.0,a,1.0,,0.0,a,b,a,b,0.0,4409.379999997793
37,22.0,hard,control,Experiment 1 (no preview),6,hidden,0.0,,,,3.0,aa,ab,ab,aa,0.0,5210.537000000768
37,22.0,hard,control,Experiment 1 (no preview),7,visible,2.0,a,2.0,,0.0,a,b,b,b,1.0,3342.675999999279
37,22.0,hard,control,Experiment 1 (no preview),8,hidden,3.0,,,,3.0,aa,ba,aa,aa,1.0,5704.833999999275
37,22.0,hard,control,Experiment 1 (no preview),9,visible,0.0,b,3.0,,3.0,a,b,b,a,0.0,3202.5200000000186
37,22.0,hard,control,Experiment 1 (no preview),10,hidden,1.0,,,,0.0,aa,bb,aa,bb,0.0,4255.583999997762
37,22.0,hard,control,Experiment 1 (no preview),11,visible,2.0,b,1.0,,0.0,a,b,a,b,0.0,5966.2849999977625
37,22.0,hard,control,Experiment 1 (no preview),12,hidden,3.0,,,,1.0,ba,bb,bb,bb,1.0,6785.625999998534
37,22.0,hard,control,Experiment 1 (no preview),13,visible,2.0,a,2.0,,1.0,a,b,b,b,1.0,771.3680000007735
37,22.0,hard,control,Experiment 1 (no preview),14,visible,3.0,a,2.0,,2.0,a,b,a,a,1.0,5685.837999997777
37,22.0,hard,control,Experiment 1 (no preview),15,hidden,0.0,,,,0.0,aa,bb,aa,bb,0.0,2993.579999997746
37,22.0,hard,control,Experiment 1 (no preview),16,hidden,1.0,,,,3.0,aa,ba,aa,ba,0.0,4553.037000000011
37,22.0,hard,control,Experiment 1 (no preview),17,visible,2.0,a,2.0,,2.0,a,b,a,a,1.0,896.8349999985076
37,22.0,hard,control,Experiment 1 (no preview),18,hidden,2.0,,,,1.0,ba,ab,ab,ab,1.0,11678.461999998486
37,22.0,hard,control,Experiment 1 (no preview),19,visible,3.0,b,2.0,,1.0,a,b,b,b,1.0,1416.3090000000084
37,22.0,hard,control,Experiment 1 (no preview),20,hidden,1.0,,,,3.0,ab,ba,ab,ab,1.0,9700.265000000014
38,21.0,easy,control,Experiment 1 (no preview),1,visible,0.0,b,2.0,,3.0,a,b,a,a,1.0,2767.3720000003814
38,21.0,easy,control,Experiment 1 (no preview),2,visible,2.0,a,3.0,,3.0,a,b,b,a,0.0,5150.4039999988745
38,21.0,easy,control,Experiment 1 (no preview),3,hidden,3.0,,,,2.0,aa,bb,aa,bb,0.0,4337.9689999996335
38,21.0,easy,control,Experiment 1 (no preview),4,visible,0.0,a,2.0,,2.0,a,b,b,b,1.0,1034.9829999988724
38,21.0,easy,control,Experiment 1 (no preview),5,hidden,2.0,,,,3.0,aa,ab,ab,aa,0.0,3375.368999998871
38,21.0,easy,control,Experiment 1 (no preview),6,visible,0.0,a,2.0,,0.0,a,b,a,a,1.0,2756.911000000371
38,21.0,easy,control,Experiment 1 (no preview),7,hidden,2.0,,,,2.0,aa,bb,bb,bb,1.0,2669.481000000378
38,21.0,easy,control,Experiment 1 (no preview),8,hidden,3.0,,,,3.0,bb,ba,bb,ba,0.0,3293.659000000014
38,21.0,easy,control,Experiment 1 (no preview),9,visible,0.0,a,2.0,,3.0,a,b,a,a,1.0,5591.564999998896
38,21.0,easy,control,Experiment 1 (no preview),10,visible,3.0,b,3.0,,0.0,a,b,a,a,1.0,1922.5089999996417
38,21.0,easy,control,Experiment 1 (no preview),11,hidden,3.0,,,,2.0,ab,ba,ab,ab,1.0,7809.892999999633
38,21.0,easy,control,Experiment 1 (no preview),12,hidden,0.0,,,,0.0,aa,ab,aa,aa,1.0,2945.919999999227
38,21.0,easy,control,Experiment 1 (no preview),13,visible,2.0,b,2.0,,2.0,a,b,b,b,1.0,1979.7120000003488
38,21.0,easy,control,Experiment 1 (no preview),14,hidden,3.0,,,,1.0,aa,ba,ba,aa,0.0,1829.8509999992675
38,21.0,easy,control,Experiment 1 (no preview),15,hidden,2.0,,,,1.0,ab,aa,aa,aa,1.0,2488.0649999992456
38,21.0,easy,control,Experiment 1 (no preview),16,hidden,0.0,,,,3.0,ab,aa,aa,aa,1.0,3439.0629999996163
38,21.0,easy,control,Experiment 1 (no preview),17,visible,3.0,b,3.0,,3.0,a,b,b,a,0.0,2148.1410000003525
38,21.0,easy,control,Experiment 1 (no preview),18,hidden,0.0,,,,2.0,aa,bb,bb,bb,1.0,3206.347999998892
38,21.0,easy,control,Experiment 1 (no preview),19,visible,0.0,b,2.0,,2.0,a,b,b,b,1.0,1117.771999999648
38,21.0,easy,control,Experiment 1 (no preview),20,visible,2.0,a,3.0,,1.0,a,b,a,a,1.0,692.4240000003483
39,21.0,easy,control,Experiment 1 (no preview),1,hidden,3.0,,,,1.0,aa,ba,ba,aa,0.0,16692.53300002386
39,21.0,easy,control,Experiment 1 (no preview),2,visible,2.0,a,3.0,,1.0,a,b,a,b,0.0,2774.6659999522963
39,21.0,easy,control,Experiment 1 (no preview),3,hidden,0.0,,,,3.0,ab,aa,aa,ab,0.0,2851.639999976149
39,21.0,easy,control,Experiment 1 (no preview),4,visible,3.0,b,3.0,,3.0,a,b,b,b,1.0,1295.5639999284758
39,21.0,easy,control,Experiment 1 (no preview),5,hidden,3.0,,,,3.0,bb,ba,bb,bb,1.0,1319.9009999523405
39,21.0,easy,control,Experiment 1 (no preview),6,visible,0.0,a,2.0,,3.0,a,b,a,b,0.0,1774.6500000000233
39,21.0,easy,control,Experiment 1 (no preview),7,hidden,3.0,,,,2.0,aa,bb,aa,bb,0.0,3147.5439999999944
39,21.0,easy,control,Experiment 1 (no preview),8,visible,0.0,b,2.0,,2.0,a,b,b,b,1.0,1675.32300002384
39,21.0,easy,control,Experiment 1 (no preview),9,visible,3.0,b,3.0,,0.0,a,b,a,a,1.0,1200.4189999523223
39,21.0,easy,control,Experiment 1 (no preview),10,visible,2.0,b,2.0,,2.0,a,b,b,b,1.0,983.5719999284483
39,21.0,easy,control,Experiment 1 (no preview),11,hidden,0.0,,,,0.0,aa,ab,aa,aa,1.0,1620.681999976165
39,21.0,easy,control,Experiment 1 (no preview),12,visible,0.0,a,2.0,,2.0,a,b,b,a,0.0,3645.922999928473
39,21.0,easy,control,Experiment 1 (no preview),13,hidden,2.0,,,,2.0,aa,bb,bb,bb,1.0,1556.0130000238423
39,21.0,easy,control,Experiment 1 (no preview),14,hidden,3.0,,,,2.0,ab,ba,ab,ab,1.0,5738.88899997616
39,21.0,easy,control,Experiment 1 (no preview),15,hidden,2.0,,,,1.0,ab,aa,aa,aa,1.0,958.4679999761864
39,21.0,easy,control,Experiment 1 (no preview),16,visible,0.0,b,2.0,,3.0,a,b,a,b,0.0,2283.844999928493
39,21.0,easy,control,Experiment 1 (no preview),17,hidden,2.0,,,,3.0,aa,ab,ab,ab,1.0,2189.480999976164
39,21.0,easy,control,Experiment 1 (no preview),18,hidden,0.0,,,,2.0,aa,bb,bb,bb,1.0,3196.6999999761465
39,21.0,easy,control,Experiment 1 (no preview),19,visible,0.0,a,2.0,,0.0,a,b,a,a,1.0,1708.9340000000084
39,21.0,easy,control,Experiment 1 (no preview),20,visible,2.0,a,3.0,,3.0,a,b,b,b,1.0,5163.295999952301
41,21.0,easy,control,Experiment 1 (no preview),1,hidden,3.0,,,,2.0,ab,ba,ab,ab,1.0,12185.763000000035
41,21.0,easy,control,Experiment 1 (no preview),2,hidden,2.0,,,,3.0,aa,ab,ab,aa,0.0,9409.702000005986
41,21.0,easy,control,Experiment 1 (no preview),3,hidden,3.0,,,,1.0,aa,ba,ba,aa,0.0,9910.439000002923
41,21.0,easy,control,Experiment 1 (no preview),4,hidden,3.0,,,,2.0,aa,bb,aa,bb,0.0,5136.419000003021
41,21.0,easy,control,Experiment 1 (no preview),5,hidden,2.0,,,,1.0,ab,aa,aa,aa,1.0,1362.6340000060154
41,21.0,easy,control,Experiment 1 (no preview),6,hidden,2.0,,,,2.0,aa,bb,bb,bb,1.0,2184.4159999999683
41,21.0,easy,control,Experiment 1 (no preview),7,hidden,0.0,,,,2.0,aa,bb,bb,aa,0.0,6542.233000011882
41,21.0,easy,control,Experiment 1 (no preview),8,visible,2.0,a,3.0,,1.0,a,b,a,a,1.0,3200.7900000000373
41,21.0,easy,control,Experiment 1 (no preview),9,visible,3.0,b,3.0,,3.0,a,b,b,b,1.0,4914.709000002942
41,21.0,easy,control,Experiment 1 (no preview),10,visible,2.0,b,2.0,,2.0,a,b,b,b,1.0,476.2770000030287
41,21.0,easy,control,Experiment 1 (no preview),11,visible,3.0,b,3.0,,0.0,a,b,a,a,1.0,16960.48700000299
41,21.0,easy,control,Experiment 1 (no preview),12,hidden,3.0,,,,3.0,bb,ba,bb,ba,0.0,2087.2110000000102
41,21.0,easy,control,Experiment 1 (no preview),13,visible,0.0,b,2.0,,3.0,a,b,a,a,1.0,2224.210000002989
41,21.0,easy,control,Experiment 1 (no preview),14,hidden,0.0,,,,3.0,ab,aa,aa,aa,1.0,2719.424000008963
41,21.0,easy,control,Experiment 1 (no preview),15,visible,0.0,a,2.0,,2.0,a,b,b,a,0.0,2869.402000000002
41,21.0,easy,control,Experiment 1 (no preview),16,visible,2.0,a,3.0,,3.0,a,b,b,a,0.0,637.5000000030268
41,21.0,easy,control,Experiment 1 (no preview),17,visible,0.0,b,2.0,,2.0,a,b,b,b,1.0,1367.1520000089658
41,21.0,easy,control,Experiment 1 (no preview),18,visible,0.0,a,2.0,,0.0,a,b,a,b,0.0,3042.204999999958
41,21.0,easy,control,Experiment 1 (no preview),19,hidden,0.0,,,,0.0,aa,ab,aa,aa,1.0,4217.290000002948
41,21.0,easy,control,Experiment 1 (no preview),20,visible,0.0,a,2.0,,3.0,a,b,a,a,1.0,4126.748000002932
63,22.0,hard,control,Experiment 1 (no preview),1,hidden,2.0,,,,3.0,ba,ab,ba,ba,1.0,6391.254000047687
63,22.0,hard,control,Experiment 1 (no preview),2,hidden,0.0,,,,0.0,aa,bb,aa,bb,0.0,15757.10700004769
63,22.0,hard,control,Experiment 1 (no preview),3,visible,0.0,b,3.0,,3.0,a,b,b,b,1.0,8924.407000047679
63,22.0,hard,control,Experiment 1 (no preview),4,hidden,2.0,,,,1.0,ba,ab,ab,ba,0.0,7835.792000000016
63,22.0,hard,control,Experiment 1 (no preview),5,visible,2.0,b,1.0,,0.0,a,b,a,b,0.0,6187.405999999959
63,22.0,hard,control,Experiment 1 (no preview),6,hidden,1.0,,,,3.0,ab,ba,ab,ba,0.0,5232.538000143017
63,22.0,hard,control,Experiment 1 (no preview),7,visible,0.0,a,3.0,,0.0,a,b,a,a,1.0,9250.394000190776
63,22.0,hard,control,Experiment 1 (no preview),8,visible,1.0,a,1.0,,0.0,a,b,a,b,0.0,2877.204000047641
63,22.0,hard,control,Experiment 1 (no preview),9,visible,2.0,a,2.0,,2.0,a,b,a,a,1.0,1865.620000190684
63,22.0,hard,control,Experiment 1 (no preview),10,visible,2.0,a,2.0,,1.0,a,b,b,b,1.0,1214.2430000476306
63,22.0,hard,control,Experiment 1 (no preview),11,visible,3.0,b,2.0,,1.0,a,b,b,a,0.0,2093.7690000477014
63,22.0,hard,control,Experiment 1 (no preview),12,hidden,0.0,,,,3.0,aa,ab,ab,ab,1.0,4566.283000143012
63,22.0,hard,control,Experiment 1 (no preview),13,visible,2.0,a,2.0,,0.0,a,b,b,b,1.0,1369.6940000476316
63,22.0,hard,control,Experiment 1 (no preview),14,hidden,3.0,,,,1.0,ba,bb,bb,ba,0.0,3837.2850000953767
63,22.0,hard,control,Experiment 1 (no preview),15,hidden,3.0,,,,3.0,aa,ba,aa,aa,1.0,5281.263999999967
63,22.0,hard,control,Experiment 1 (no preview),16,hidden,1.0,,,,2.0,ab,ba,ba,ab,0.0,5134.123000143096
63,22.0,hard,control,Experiment 1 (no preview),17,visible,3.0,a,2.0,,2.0,a,b,a,b,0.0,3376.713000095333
63,22.0,hard,control,Experiment 1 (no preview),18,visible,1.0,b,1.0,,3.0,a,b,b,a,0.0,5485.018000190728
63,22.0,hard,control,Experiment 1 (no preview),19,hidden,1.0,,,,3.0,aa,ba,aa,ba,0.0,5909.244999999995
63,22.0,hard,control,Experiment 1 (no preview),20,hidden,1.0,,,,0.0,aa,bb,aa,bb,0.0,3591.314000000013
64,22.0,hard,control,Experiment 1 (no preview),1,hidden,0.0,,,,3.0,aa,ab,ab,ab,1.0,3622.260999952327
64,22.0,hard,control,Experiment 1 (no preview),2,hidden,3.0,,,,1.0,ba,bb,bb,bb,1.0,1988.5980000238344
64,22.0,hard,control,Experiment 1 (no preview),3,hidden,1.0,,,,2.0,ab,ba,ba,ba,1.0,4222.251999928471
64,22.0,hard,control,Experiment 1 (no preview),4,hidden,1.0,,,,0.0,aa,bb,aa,aa,1.0,3321.926999928488
64,22.0,hard,control,Experiment 1 (no preview),5,hidden,2.0,,,,3.0,ba,ab,ba,ab,0.0,4972.267000023858
64,22.0,hard,control,Experiment 1 (no preview),6,visible,2.0,b,1.0,,0.0,a,b,a,b,0.0,4305.527000000002
64,22.0,hard,control,Experiment 1 (no preview),7,visible,2.0,a,2.0,,0.0,a,b,b,b,1.0,3521.9349999999977
64,22.0,hard,control,Experiment 1 (no preview),8,visible,0.0,b,3.0,,3.0,a,b,b,b,1.0,1822.1829999522888
64,22.0,hard,control,Experiment 1 (no preview),9,hidden,2.0,,,,1.0,ba,ab,ab,ab,1.0,7838.77199992846
64,22.0,hard,control,Experiment 1 (no preview),10,hidden,0.0,,,,0.0,aa,bb,aa,bb,0.0,2955.118999976141
64,22.0,hard,control,Experiment 1 (no preview),11,visible,2.0,a,2.0,,1.0,a,b,b,b,1.0,3038.911000023829
64,22.0,hard,control,Experiment 1 (no preview),12,visible,1.0,b,1.0,,3.0,a,b,b,a,0.0,1971.7699999761533
64,22.0,hard,control,Experiment 1 (no preview),13,hidden,1.0,,,,3.0,ab,ba,ab,ab,1.0,13605.755999999994
64,22.0,hard,control,Experiment 1 (no preview),14,hidden,3.0,,,,3.0,aa,ba,aa,aa,1.0,5088.715999952343
64,22.0,hard,control,Experiment 1 (no preview),15,visible,0.0,a,3.0,,0.0,a,b,a,b,0.0,5088.53899999999
64,22.0,hard,control,Experiment 1 (no preview),16,visible,1.0,a,1.0,,0.0,a,b,a,b,0.0,9005.882999999973
64,22.0,hard,control,Experiment 1 (no preview),17,hidden,1.0,,,,3.0,aa,ba,aa,ba,0.0,7755.287999976135
64,22.0,hard,control,Experiment 1 (no preview),18,visible,2.0,a,2.0,,2.0,a,b,a,a,1.0,3121.771999952325
64,22.0,hard,control,Experiment 1 (no preview),19,visible,3.0,b,2.0,,1.0,a,b,b,b,1.0,3122.103999928455
64,22.0,hard,control,Experiment 1 (no preview),20,visible,3.0,a,2.0,,2.0,a,b,a,a,1.0,571.8959999284707
65,22.0,hard,control,Experiment 1 (no preview),1,hidden,2.0,,,,3.0,ba,ab,ba,ba,1.0,4347.812999976159
65,22.0,hard,control,Experiment 1 (no preview),2,visible,2.0,a,2.0,,2.0,a,b,a,b,0.0,1438.442999904626
65,22.0,hard,control,Experiment 1 (no preview),3,hidden,1.0,,,,3.0,aa,ba,aa,ba,0.0,3108.078999952326
65,22.0,hard,control,Experiment 1 (no preview),4,visible,3.0,b,2.0,,1.0,a,b,b,a,0.0,3306.649999999994
65,22.0,hard,control,Experiment 1 (no preview),5,visible,0.0,b,3.0,,3.0,a,b,b,b,1.0,2136.5989999761514
65,22.0,hard,control,Experiment 1 (no preview),6,hidden,3.0,,,,3.0,aa,ba,aa,aa,1.0,2368.012999928469
65,22.0,hard,control,Experiment 1 (no preview),7,visible,1.0,b,1.0,,3.0,a,b,b,a,0.0,2687.300999928498
65,22.0,hard,control,Experiment 1 (no preview),8,hidden,0.0,,,,0.0,aa,bb,aa,bb,0.0,1698.5159999523312
65,22.0,hard,control,Experiment 1 (no preview),9,hidden,1.0,,,,3.0,ab,ba,ab,ab,1.0,9820.347999976131
65,22.0,hard,control,Experiment 1 (no preview),10,hidden,1.0,,,,2.0,ab,ba,ba,ba,1.0,1364.094999928493
65,22.0,hard,control,Experiment 1 (no preview),11,visible,2.0,a,2.0,,1.0,a,b,b,b,1.0,4368.517999928503
65,22.0,hard,control,Experiment 1 (no preview),12,visible,1.0,a,1.0,,0.0,a,b,a,b,0.0,1251.9870000000228
65,22.0,hard,control,Experiment 1 (no preview),13,visible,0.0,a,3.0,,0.0,a,b,a,a,1.0,3570.4869999522925
65,22.0,hard,control,Experiment 1 (no preview),14,visible,2.0,b,1.0,,0.0,a,b,a,b,0.0,3681.103999904648
65,22.0,hard,control,Experiment 1 (no preview),15,hidden,3.0,,,,1.0,ba,bb,bb,bb,1.0,4538.212999928452
65,22.0,hard,control,Experiment 1 (no preview),16,hidden,2.0,,,,1.0,ba,ab,ab,ab,1.0,2858.369999999996
65,22.0,hard,control,Experiment 1 (no preview),17,visible,3.0,a,2.0,,2.0,a,b,a,a,1.0,3323.5779999999795
65,22.0,hard,control,Experiment 1 (no preview),18,visible,2.0,a,2.0,,0.0,a,b,b,b,1.0,2244.796999976156
65,22.0,hard,control,Experiment 1 (no preview),19,hidden,0.0,,,,3.0,aa,ab,ab,ab,1.0,5804.8829999999725
65,22.0,hard,control,Experiment 1 (no preview),20,hidden,1.0,,,,0.0,aa,bb,aa,aa,1.0,2264.8400000000256
66,22.0,hard,control,Experiment 1 (no preview),1,hidden,0.0,,,,0.0,aa,bb,aa,bb,0.0,10839.181999928493
66,22.0,hard,control,Experiment 1 (no preview),2,hidden,1.0,,,,3.0,aa,ba,aa,aa,1.0,19700.10499995231
66,22.0,hard,control,Experiment 1 (no preview),3,visible,2.0,a,2.0,,2.0,a,b,a,a,1.0,4698.33099997614
66,22.0,hard,control,Experiment 1 (no preview),4,hidden,0.0,,,,3.0,aa,ab,ab,ab,1.0,16330.103000023868
66,22.0,hard,control,Experiment 1 (no preview),5,visible,3.0,b,2.0,,1.0,a,b,b,b,1.0,4894.003000000026
66,22.0,hard,control,Experiment 1 (no preview),6,visible,1.0,b,1.0,,3.0,a,b,b,b,1.0,4904.269999952288
66,22.0,hard,control,Experiment 1 (no preview),7,visible,3.0,a,2.0,,2.0,a,b,a,a,1.0,6093.683000023826
66,22.0,hard,control,Experiment 1 (no preview),8,hidden,3.0,,,,3.0,aa,ba,aa,aa,1.0,8379.55200002389
66,22.0,hard,control,Experiment 1 (no preview),9,visible,0.0,a,3.0,,0.0,a,b,a,b,0.0,12314.330999952275
66,22.0,hard,control,Experiment 1 (no preview),10,hidden,1.0,,,,3.0,ab,ba,ab,ab,1.0,5252.106999928481
66,22.0,hard,control,Experiment 1 (no preview),11,hidden,2.0,,,,1.0,ba,ab,ab,ab,1.0,7198.349999976112
66,22.0,hard,control,Experiment 1 (no preview),12,visible,2.0,a,2.0,,1.0,a,b,b,b,1.0,7196.602999976138
66,22.0,hard,control,Experiment 1 (no preview),13,visible,0.0,b,3.0,,3.0,a,b,b,a,0.0,5512.798000023817
66,22.0,hard,control,Experiment 1 (no preview),14,hidden,3.0,,,,1.0,ba,bb,bb,ba,0.0,4457.376000023796
66,22.0,hard,control,Experiment 1 (no preview),15,hidden,2.0,,,,3.0,ba,ab,ba,ab,0.0,2558.350999928429
66,22.0,hard,control,Experiment 1 (no preview),16,visible,1.0,a,1.0,,0.0,a,b,a,b,0.0,11329.594999928491
66,22.0,hard,control,Experiment 1 (no preview),17,visible,2.0,b,1.0,,0.0,a,b,a,a,1.0,6540.6419999285135
66,22.0,hard,control,Experiment 1 (no preview),18,visible,2.0,a,2.0,,0.0,a,b,b,a,0.0,3241.1870000000345
66,22.0,hard,control,Experiment 1 (no preview),19,hidden,1.0,,,,0.0,aa,bb,aa,bb,0.0,26362.983000000007
66,22.0,hard,control,Experiment 1 (no preview),20,hidden,1.0,,,,2.0,ab,ba,ba,ab,0.0,6173.740000023856
68,22.0,hard,control,Experiment 1 (no preview),1,hidden,1.0,,,,3.0,ab,ba,ab,ab,1.0,10163.60799992847
68,22.0,hard,control,Experiment 1 (no preview),2,visible,3.0,a,2.0,,2.0,a,b,a,a,1.0,1456.6269999761716
68,22.0,hard,control,Experiment 1 (no preview),3,hidden,1.0,,,,2.0,ab,ba,ba,ba,1.0,6914.239999976184
68,22.0,hard,control,Experiment 1 (no preview),4,visible,3.0,b,2.0,,1.0,a,b,b,b,1.0,1304.4169999761507
68,22.0,hard,control,Experiment 1 (no preview),5,hidden,3.0,,,,1.0,ba,bb,bb,bb,1.0,1855.9340000000084
68,22.0,hard,control,Experiment 1 (no preview),6,hidden,3.0,,,,3.0,aa,ba,aa,aa,1.0,1641.130999952322
68,22.0,hard,control,Experiment 1 (no preview),7,hidden,1.0,,,,0.0,aa,bb,aa,aa,1.0,3123.2309999522986
68,22.0,hard,control,Experiment 1 (no preview),8,hidden,0.0,,,,0.0,aa,bb,aa,aa,1.0,1521.90599992848
68,22.0,hard,control,Experiment 1 (no preview),9,visible,1.0,b,1.0,,3.0,a,b,b,a,0.0,4528.929999976186
68,22.0,hard,control,Experiment 1 (no preview),10,visible,2.0,a,2.0,,1.0,a,b,b,b,1.0,1279.0439999761293
68,22.0,hard,control,Experiment 1 (no preview),11,visible,2.0,b,1.0,,0.0,a,b,a,b,0.0,3598.8429999284563
68,22.0,hard,control,Experiment 1 (no preview),12,visible,0.0,a,3.0,,0.0,a,b,a,b,0.0,3322.3399999284884
68,22.0,hard,control,Experiment 1 (no preview),13,hidden,2.0,,,,1.0,ba,ab,ab,ab,1.0,2625.200999976136
68,22.0,hard,control,Experiment 1 (no preview),14,visible,1.0,a,1.0,,0.0,a,b,a,a,1.0,9052.561999952304
68,22.0,hard,control,Experiment 1 (no preview),15,visible,2.0,a,2.0,,2.0,a,b,a,a,1.0,685.6069999522879
68,22.0,hard,control,Experiment 1 (no preview),16,visible,2.0,a,2.0,,0.0,a,b,b,b,1.0,7981.525999928475
68,22.0,hard,control,Experiment 1 (no preview),17,hidden,2.0,,,,3.0,ba,ab,ba,ba,1.0,5785.818999952287
68,22.0,hard,control,Experiment 1 (no preview),18,hidden,1.0,,,,3.0,aa,ba,aa,aa,1.0,3845.982999952336
68,22.0,hard,control,Experiment 1 (no preview),19,visible,0.0,b,3.0,,3.0,a,b,b,b,1.0,6127.631999976176
68,22.0,hard,control,Experiment 1 (no preview),20,hidden,0.0,,,,3.0,aa,ab,ab,ab,1.0,7205.6239999284735
67,22.0,hard,control,Experiment 1 (no preview),1,hidden,0.0,,,,0.0,aa,bb,aa,bb,0.0,3902.750999952317
67,22.0,hard,control,Experiment 1 (no preview),2,visible,0.0,b,3.0,,3.0,a,b,b,b,1.0,2190.5070000953565
67,22.0,hard,control,Experiment 1 (no preview),3,hidden,2.0,,,,1.0,ba,ab,ab,ab,1.0,4506.295000000013
67,22.0,hard,control,Experiment 1 (no preview),4,hidden,3.0,,,,3.0,aa,ba,aa,ba,0.0,15555.285000095377
67,22.0,hard,control,Experiment 1 (no preview),5,hidden,0.0,,,,3.0,aa,ab,ab,ab,1.0,1817.0930000953667
67,22.0,hard,control,Experiment 1 (no preview),6,visible,3.0,a,2.0,,2.0,a,b,a,a,1.0,971.4439999999886
67,22.0,hard,control,Experiment 1 (no preview),7,visible,1.0,a,1.0,,0.0,a,b,a,b,0.0,872.9220000953646
67,22.0,hard,control,Experiment 1 (no preview),8,hidden,3.0,,,,1.0,ba,bb,bb,bb,1.0,1081.8740000953549
67,22.0,hard,control,Experiment 1 (no preview),9,visible,0.0,a,3.0,,0.0,a,b,a,b,0.0,793.8549999523093
67,22.0,hard,control,Experiment 1 (no preview),10,visible,2.0,b,1.0,,0.0,a,b,a,b,0.0,876.9829999523063
67,22.0,hard,control,Experiment 1 (no preview),11,visible,1.0,b,1.0,,3.0,a,b,b,b,1.0,1125.1520000953751
67,22.0,hard,control,Experiment 1 (no preview),12,visible,2.0,a,2.0,,0.0,a,b,b,b,1.0,875.2519999523065
67,22.0,hard,control,Experiment 1 (no preview),13,hidden,1.0,,,,3.0,ab,ba,ab,ab,1.0,2252.396999952325
67,22.0,hard,control,Experiment 1 (no preview),14,hidden,1.0,,,,3.0,aa,ba,aa,aa,1.0,5077.746999999974
67,22.0,hard,control,Experiment 1 (no preview),15,visible,2.0,a,2.0,,2.0,a,b,a,a,1.0,1022.2900000953814
67,22.0,hard,control,Experiment 1 (no preview),16,hidden,1.0,,,,2.0,ab,ba,ba,ba,1.0,3537.1549999522977
67,22.0,hard,control,Experiment 1 (no preview),17,visible,3.0,b,2.0,,1.0,a,b,b,b,1.0,1671.2819999523344
67,22.0,hard,control,Experiment 1 (no preview),18,visible,2.0,a,2.0,,1.0,a,b,b,b,1.0,776.536000095366
67,22.0,hard,control,Experiment 1 (no preview),19,hidden,2.0,,,,3.0,ba,ab,ba,ab,0.0,6291.75900000002
67,22.0,hard,control,Experiment 1 (no preview),20,hidden,1.0,,,,0.0,aa,bb,aa,bb,0.0,1204.4780000000028
69,22.0,hard,control,Experiment 1 (no preview),1,hidden,1.0,,,,3.0,aa,ba,aa,ba,0.0,11703.0
69,22.0,hard,control,Experiment 1 (no preview),2,hidden,1.0,,,,3.0,ab,ba,ab,ab,1.0,10377.0
69,22.0,hard,control,Experiment 1 (no preview),3,visible,3.0,b,2.0,,1.0,a,b,b,b,1.0,3863.0
69,22.0,hard,control,Experiment 1 (no preview),4,visible,3.0,a,2.0,,2.0,a,b,a,a,1.0,5079.0
69,22.0,hard,control,Experiment 1 (no preview),5,hidden,0.0,,,,0.0,aa,bb,aa,bb,0.0,10859.0
69,22.0,hard,control,Experiment 1 (no preview),6,visible,2.0,b,1.0,,0.0,a,b,a,a,1.0,17077.0
69,22.0,hard,control,Experiment 1 (no preview),7,hidden,0.0,,,,3.0,aa,ab,ab,ab,1.0,4992.0
69,22.0,hard,control,Experiment 1 (no preview),8,visible,2.0,a,2.0,,1.0,a,b,b,b,1.0,2224.0
69,22.0,hard,control,Experiment 1 (no preview),9,hidden,2.0,,,,1.0,ba,ab,ab,ba,0.0,13783.0
69,22.0,hard,control,Experiment 1 (no preview),10,visible,1.0,b,1.0,,3.0,a,b,b,a,0.0,3444.0
69,22.0,hard,control,Experiment 1 (no preview),11,hidden,1.0,,,,0.0,aa,bb,aa,bb,0.0,3957.0
69,22.0,hard,control,Experiment 1 (no preview),12,hidden,3.0,,,,3.0,aa,ba,aa,ba,0.0,6466.0
69,22.0,hard,control,Experiment 1 (no preview),13,hidden,3.0,,,,1.0,ba,bb,bb,bb,1.0,2361.0
69,22.0,hard,control,Experiment 1 (no preview),14,visible,1.0,a,1.0,,0.0,a,b,a,a,1.0,5280.0
69,22.0,hard,control,Experiment 1 (no preview),15,visible,0.0,b,3.0,,3.0,a,b,b,b,1.0,2627.0
69,22.0,hard,control,Experiment 1 (no preview),16,hidden,1.0,,,,2.0,ab,ba,ba,ba,1.0,5240.0
69,22.0,hard,control,Experiment 1 (no preview),17,visible,2.0,a,2.0,,2.0,a,b,a,a,1.0,560.0
69,22.0,hard,control,Experiment 1 (no preview),18,visible,2.0,a,2.0,,0.0,a,b,b,b,1.0,600.0
69,22.0,hard,control,Experiment 1 (no preview),19,visible,0.0,a,3.0,,0.0,a,b,a,b,0.0,1094.0
69,22.0,hard,control,Experiment 1 (no preview),20,hidden,2.0,,,,3.0,ba,ab,ba,ab,0.0,8940.0
70,22.0,hard,control,Experiment 1 (no preview),1,visible,3.0,a,2.0,,2.0,a,b,a,a,1.0,1840.6770000000247
70,22.0,hard,control,Experiment 1 (no preview),2,hidden,2.0,,,,1.0,ba,ab,ab,ab,1.0,5281.565000000002
70,22.0,hard,control,Experiment 1 (no preview),3,hidden,1.0,,,,2.0,ab,ba,ba,ba,1.0,5160.419999999984
70,22.0,hard,control,Experiment 1 (no preview),4,visible,2.0,a,2.0,,2.0,a,b,a,a,1.0,1924.4159999761607
70,22.0,hard,control,Experiment 1 (no preview),5,visible,1.0,a,1.0,,0.0,a,b,a,a,1.0,5842.748000000021
70,22.0,hard,control,Experiment 1 (no preview),6,hidden,0.0,,,,0.0,aa,bb,aa,aa,1.0,3699.3249999761465
70,22.0,hard,control,Experiment 1 (no preview),7,visible,2.0,a,2.0,,0.0,a,b,b,a,0.0,1497.980999982101
70,22.0,hard,control,Experiment 1 (no preview),8,hidden,3.0,,,,3.0,aa,ba,aa,aa,1.0,5160.695999999996
70,22.0,hard,control,Experiment 1 (no preview),9,visible,2.0,a,2.0,,1.0,a,b,b,b,1.0,1100.8389999761712
70,22.0,hard,control,Experiment 1 (no preview),10,visible,1.0,b,1.0,,3.0,a,b,b,b,1.0,1147.8029999761493
70,22.0,hard,control,Experiment 1 (no preview),11,visible,3.0,b,2.0,,1.0,a,b,b,b,1.0,3848.443000000029
70,22.0,hard,control,Experiment 1 (no preview),12,hidden,1.0,,,,3.0,aa,ba,aa,ba,0.0,6905.086999976134
70,22.0,hard,control,Experiment 1 (no preview),13,hidden,2.0,,,,3.0,ba,ab,ba,ab,0.0,5663.053000000014
70,22.0,hard,control,Experiment 1 (no preview),14,hidden,3.0,,,,1.0,ba,bb,bb,bb,1.0,7631.13799997617
70,22.0,hard,control,Experiment 1 (no preview),15,hidden,1.0,,,,3.0,ab,ba,ab,ab,1.0,1943.811999976169
70,22.0,hard,control,Experiment 1 (no preview),16,visible,0.0,a,3.0,,0.0,a,b,a,a,1.0,685.3759999761824
70,22.0,hard,control,Experiment 1 (no preview),17,hidden,0.0,,,,3.0,aa,ab,ab,ab,1.0,1645.140000000014
70,22.0,hard,control,Experiment 1 (no preview),18,visible,2.0,b,1.0,,0.0,a,b,a,a,1.0,1902.173999976134
70,22.0,hard,control,Experiment 1 (no preview),19,hidden,1.0,,,,0.0,aa,bb,aa,aa,1.0,2789.173999999999
70,22.0,hard,control,Experiment 1 (no preview),20,visible,0.0,b,3.0,,3.0,a,b,b,a,0.0,1728.25900000002
71,22.0,hard,control,Experiment 1 (no preview),1,visible,2.0,a,2.0,,0.0,a,b,b,b,1.0,7628.181000000011
71,22.0,hard,control,Experiment 1 (no preview),2,hidden,2.0,,,,1.0,ba,ab,ab,ab,1.0,13834.181000000011
71,22.0,hard,control,Experiment 1 (no preview),3,visible,2.0,b,1.0,,0.0,a,b,a,a,1.0,5682.880000011937
71,22.0,hard,control,Experiment 1 (no preview),4,hidden,1.0,,,,3.0,aa,ba,aa,aa,1.0,805.4010000059498
71,22.0,hard,control,Experiment 1 (no preview),5,hidden,1.0,,,,2.0,ab,ba,ba,ab,0.0,2334.4409999940544
71,22.0,hard,control,Experiment 1 (no preview),6,visible,0.0,a,3.0,,0.0,a,b,a,a,1.0,5432.476000000024
71,22.0,hard,control,Experiment 1 (no preview),7,hidden,1.0,,,,3.0,ab,ba,ab,ba,0.0,2307.2679999940447
71,22.0,hard,control,Experiment 1 (no preview),8,hidden,0.0,,,,0.0,aa,bb,aa,bb,0.0,3898.9810000178986
71,22.0,hard,control,Experiment 1 (no preview),9,visible,2.0,a,2.0,,1.0,a,b,b,b,1.0,2201.549999994051
71,22.0,hard,control,Experiment 1 (no preview),10,hidden,0.0,,,,3.0,aa,ab,ab,aa,0.0,1946.179999999993
71,22.0,hard,control,Experiment 1 (no preview),11,visible,0.0,b,3.0,,3.0,a,b,b,b,1.0,1366.1060000000289
71,22.0,hard,control,Experiment 1 (no preview),12,visible,3.0,a,2.0,,2.0,a,b,a,a,1.0,716.8020000000251
71,22.0,hard,control,Experiment 1 (no preview),13,hidden,1.0,,,,0.0,aa,bb,aa,aa,1.0,907.5380000059376
71,22.0,hard,control,Experiment 1 (no preview),14,hidden,2.0,,,,3.0,ba,ab,ba,ab,0.0,1890.1239999940155
71,22.0,hard,control,Experiment 1 (no preview),15,hidden,3.0,,,,3.0,aa,ba,aa,aa,1.0,1195.9079999999958
71,22.0,hard,control,Experiment 1 (no preview),16,visible,3.0,b,2.0,,1.0,a,b,b,b,1.0,3244.340000017896
71,22.0,hard,control,Experiment 1 (no preview),17,visible,1.0,a,1.0,,0.0,a,b,a,b,0.0,764.2780000178609
71,22.0,hard,control,Experiment 1 (no preview),18,visible,1.0,b,1.0,,3.0,a,b,b,a,0.0,2467.481000000029
71,22.0,hard,control,Experiment 1 (no preview),19,hidden,3.0,,,,1.0,ba,bb,bb,bb,1.0,2938.22100000002
71,22.0,hard,control,Experiment 1 (no preview),20,visible,2.0,a,2.0,,2.0,a,b,a,a,1.0,2562.944000005955
82,21.0,easy,control,Experiment 1 (no preview),1,visible,2.0,a,3.0,,1.0,a,b,a,b,0.0,12704.0
82,21.0,easy,control,Experiment 1 (no preview),2,hidden,2.0,,,,2.0,aa,bb,bb,bb,1.0,6313.0
82,21.0,easy,control,Experiment 1 (no preview),3,hidden,3.0,,,,1.0,aa,ba,ba,aa,0.0,9848.0
82,21.0,easy,control,Experiment 1 (no preview),4,hidden,0.0,,,,2.0,aa,bb,bb,bb,1.0,5524.0
82,21.0,easy,control,Experiment 1 (no preview),5,hidden,3.0,,,,3.0,bb,ba,bb,ba,0.0,7622.0
82,21.0,easy,control,Experiment 1 (no preview),6,visible,0.0,b,2.0,,3.0,a,b,a,a,1.0,8724.0
82,21.0,easy,control,Experiment 1 (no preview),7,hidden,0.0,,,,0.0,aa,ab,aa,ab,0.0,13706.0
82,21.0,easy,control,Experiment 1 (no preview),8,visible,0.0,b,2.0,,2.0,a,b,b,a,0.0,4640.0
82,21.0,easy,control,Experiment 1 (no preview),9,visible,0.0,a,2.0,,0.0,a,b,a,b,0.0,5637.0
82,21.0,easy,control,Experiment 1 (no preview),10,hidden,2.0,,,,3.0,aa,ab,ab,aa,0.0,5876.0
82,21.0,easy,control,Experiment 1 (no preview),11,visible,3.0,b,3.0,,0.0,a,b,a,b,0.0,1375.0
82,21.0,easy,control,Experiment 1 (no preview),12,hidden,2.0,,,,1.0,ab,aa,aa,ab,0.0,2220.0
82,21.0,easy,control,Experiment 1 (no preview),13,hidden,3.0,,,,2.0,aa,bb,aa,aa,1.0,11486.0
82,21.0,easy,control,Experiment 1 (no preview),14,visible,0.0,a,2.0,,3.0,a,b,a,a,1.0,1636.0
82,21.0,easy,control,Experiment 1 (no preview),15,hidden,0.0,,,,3.0,ab,aa,aa,ab,0.0,1129.0
82,21.0,easy,control,Experiment 1 (no preview),16,hidden,3.0,,,,2.0,ab,ba,ab,ba,0.0,1205.0
82,21.0,easy,control,Experiment 1 (no preview),17,visible,2.0,a,3.0,,3.0,a,b,b,a,0.0,1608.0
82,21.0,easy,control,Experiment 1 (no preview),18,visible,2.0,b,2.0,,2.0,a,b,b,b,1.0,3014.0
82,21.0,easy,control,Experiment 1 (no preview),19,visible,3.0,b,3.0,,3.0,a,b,b,a,0.0,1094.0
82,21.0,easy,control,Experiment 1 (no preview),20,visible,0.0,a,2.0,,2.0,a,b,b,b,1.0,1756.0
80,21.0,easy,control,Experiment 1 (no preview),1,visible,0.0,a,2.0,,0.0,a,b,a,b,0.0,7738.690999976156
80,21.0,easy,control,Experiment 1 (no preview),2,hidden,0.0,,,,0.0,aa,ab,aa,ab,0.0,9209.29200001192
80,21.0,easy,control,Experiment 1 (no preview),3,hidden,3.0,,,,3.0,bb,ba,bb,bb,1.0,5622.167999988073
80,21.0,easy,control,Experiment 1 (no preview),4,visible,3.0,b,3.0,,3.0,a,b,b,b,1.0,3484.469999976165
80,21.0,easy,control,Experiment 1 (no preview),5,hidden,0.0,,,,2.0,aa,bb,bb,aa,0.0,4912.221999988076
80,21.0,easy,control,Experiment 1 (no preview),6,hidden,2.0,,,,3.0,aa,ab,ab,aa,0.0,5394.40099998808
80,21.0,easy,control,Experiment 1 (no preview),7,hidden,0.0,,,,3.0,ab,aa,aa,aa,1.0,6250.8949999761535
80,21.0,easy,control,Experiment 1 (no preview),8,visible,3.0,b,3.0,,0.0,a,b,a,a,1.0,6040.127000023844
80,21.0,easy,control,Experiment 1 (no preview),9,hidden,3.0,,,,2.0,aa,bb,aa,aa,1.0,9182.278999988106
80,21.0,easy,control,Experiment 1 (no preview),10,hidden,2.0,,,,2.0,aa,bb,bb,bb,1.0,3087.807000011904
80,21.0,easy,control,Experiment 1 (no preview),11,visible,0.0,b,2.0,,2.0,a,b,b,b,1.0,2288.302999988082
80,21.0,easy,control,Experiment 1 (no preview),12,visible,0.0,a,2.0,,2.0,a,b,b,b,1.0,6579.50500002387
80,21.0,easy,control,Experiment 1 (no preview),13,visible,2.0,a,3.0,,3.0,a,b,b,b,1.0,6397.969999999972
80,21.0,easy,control,Experiment 1 (no preview),14,hidden,2.0,,,,1.0,ab,aa,aa,aa,1.0,6247.382999988098
80,21.0,easy,control,Experiment 1 (no preview),15,visible,2.0,a,3.0,,1.0,a,b,a,a,1.0,3557.993000023824
80,21.0,easy,control,Experiment 1 (no preview),16,visible,0.0,b,2.0,,3.0,a,b,a,a,1.0,14845.29399997613
80,21.0,easy,control,Experiment 1 (no preview),17,hidden,3.0,,,,1.0,aa,ba,ba,aa,0.0,6588.991999988095
80,21.0,easy,control,Experiment 1 (no preview),18,visible,2.0,b,2.0,,2.0,a,b,b,b,1.0,4851.411000023829
80,21.0,easy,control,Experiment 1 (no preview),19,hidden,3.0,,,,2.0,ab,ba,ab,ab,1.0,15890.507000023848
80,21.0,easy,control,Experiment 1 (no preview),20,visible,0.0,a,2.0,,3.0,a,b,a,a,1.0,4909.885999999999
81,21.0,easy,control,Experiment 1 (no preview),1,visible,0.0,a,2.0,,3.0,a,b,a,b,0.0,3382.098000008933
81,21.0,easy,control,Experiment 1 (no preview),2,visible,0.0,a,2.0,,2.0,a,b,b,a,0.0,931.828999999998
81,21.0,easy,control,Experiment 1 (no preview),3,hidden,3.0,,,,2.0,aa,bb,aa,aa,1.0,3733.769
81,21.0,easy,control,Experiment 1 (no preview),4,hidden,2.0,,,,2.0,aa,bb,bb,aa,0.0,1954.670000008948
81,21.0,easy,control,Experiment 1 (no preview),5,visible,0.0,b,2.0,,2.0,a,b,b,a,0.0,2729.347000000009
81,21.0,easy,control,Experiment 1 (no preview),6,hidden,3.0,,,,2.0,ab,ba,ab,ba,0.0,9073.663000008964
81,21.0,easy,control,Experiment 1 (no preview),7,visible,0.0,a,2.0,,0.0,a,b,a,b,0.0,2401.232000008924
81,21.0,easy,control,Experiment 1 (no preview),8,visible,3.0,b,3.0,,0.0,a,b,a,b,0.0,2966.95199999999
81,21.0,easy,control,Experiment 1 (no preview),9,hidden,3.0,,,,1.0,aa,ba,ba,ba,1.0,7482.705000000016
81,21.0,easy,control,Experiment 1 (no preview),10,hidden,2.0,,,,3.0,aa,ab,ab,ab,1.0,2718.4130000000005
81,21.0,easy,control,Experiment 1 (no preview),11,hidden,0.0,,,,3.0,ab,aa,aa,ab,0.0,5054.729000008956
81,21.0,easy,control,Experiment 1 (no preview),12,visible,3.0,b,3.0,,3.0,a,b,b,b,1.0,3394.897000008961
81,21.0,easy,control,Experiment 1 (no preview),13,hidden,0.0,,,,2.0,aa,bb,bb,bb,1.0,3458.3730000000214
81,21.0,easy,control,Experiment 1 (no preview),14,hidden,3.0,,,,3.0,bb,ba,bb,bb,1.0,8510.830000008922
81,21.0,easy,control,Experiment 1 (no preview),15,hidden,0.0,,,,0.0,aa,ab,aa,aa,1.0,5212.769000008935
81,21.0,easy,control,Experiment 1 (no preview),16,visible,0.0,b,2.0,,3.0,a,b,a,b,0.0,3477.8360000000102
81,21.0,easy,control,Experiment 1 (no preview),17,visible,2.0,b,2.0,,2.0,a,b,b,b,1.0,3025.932000008936
81,21.0,easy,control,Experiment 1 (no preview),18,visible,2.0,a,3.0,,3.0,a,b,b,b,1.0,956.6969999999856
81,21.0,easy,control,Experiment 1 (no preview),19,hidden,2.0,,,,1.0,ab,aa,aa,ab,0.0,3612.809000000008
81,21.0,easy,control,Experiment 1 (no preview),20,visible,2.0,a,3.0,,1.0,a,b,a,b,0.0,1352.8220000089495
83,21.0,easy,control,Experiment 1 (no preview),1,visible,2.0,b,2.0,,2.0,a,b,b,b,1.0,3315.286999991047
83,21.0,easy,control,Experiment 1 (no preview),2,visible,0.0,a,2.0,,3.0,a,b,a,b,0.0,1405.5659999910567
83,21.0,easy,control,Experiment 1 (no preview),3,visible,2.0,a,3.0,,3.0,a,b,b,b,1.0,671.2220000029774
83,21.0,easy,control,Experiment 1 (no preview),4,visible,3.0,b,3.0,,3.0,a,b,b,a,0.0,573.5039999970177
83,21.0,easy,control,Experiment 1 (no preview),5,hidden,3.0,,,,1.0,aa,ba,ba,aa,0.0,2681.4009999910486
83,21.0,easy,control,Experiment 1 (no preview),6,visible,2.0,a,3.0,,1.0,a,b,a,a,1.0,824.234999999986
83,21.0,easy,control,Experiment 1 (no preview),7,hidden,0.0,,,,2.0,aa,bb,bb,bb,1.0,625.4939999940107
83,21.0,easy,control,Experiment 1 (no preview),8,hidden,2.0,,,,2.0,aa,bb,bb,aa,0.0,3572.9309999910765
83,21.0,easy,control,Experiment 1 (no preview),9,hidden,3.0,,,,2.0,aa,bb,aa,bb,0.0,690.2330000000075
83,21.0,easy,control,Experiment 1 (no preview),10,hidden,3.0,,,,3.0,bb,ba,bb,ba,0.0,415.33500000002095
83,21.0,easy,control,Experiment 1 (no preview),11,hidden,0.0,,,,0.0,aa,ab,aa,aa,1.0,1018.1589999999852
83,21.0,easy,control,Experiment 1 (no preview),12,hidden,2.0,,,,1.0,ab,aa,aa,aa,1.0,2135.700999991037
83,21.0,easy,control,Experiment 1 (no preview),13,visible,0.0,b,2.0,,3.0,a,b,a,b,0.0,1666.4919999910635
83,21.0,easy,control,Experiment 1 (no preview),14,visible,0.0,b,2.0,,2.0,a,b,b,b,1.0,1266.1149999940535
83,21.0,easy,control,Experiment 1 (no preview),15,hidden,0.0,,,,3.0,ab,aa,aa,ab,0.0,1147.630999999994
83,21.0,easy,control,Experiment 1 (no preview),16,visible,3.0,b,3.0,,0.0,a,b,a,a,1.0,920.6969999910798
83,21.0,easy,control,Experiment 1 (no preview),17,hidden,3.0,,,,2.0,ab,ba,ab,ba,0.0,2496.8670000000275
83,21.0,easy,control,Experiment 1 (no preview),18,visible,0.0,a,2.0,,0.0,a,b,a,a,1.0,1621.4209999910672
83,21.0,easy,control,Experiment 1 (no preview),19,hidden,2.0,,,,3.0,aa,ab,ab,ab,1.0,712.2030000030063
83,21.0,easy,control,Experiment 1 (no preview),20,visible,0.0,a,2.0,,2.0,a,b,b,b,1.0,1817.532999991032
84,21.0,easy,control,Experiment 1 (no preview),1,hidden,3.0,,,,2.0,ab,ba,ab,ab,1.0,9147.834000000004
84,21.0,easy,control,Experiment 1 (no preview),2,hidden,3.0,,,,2.0,aa,bb,aa,bb,0.0,5638.337999999989
84,21.0,easy,control,Experiment 1 (no preview),3,visible,2.0,a,3.0,,1.0,a,b,a,a,1.0,3993.3120000477065
84,21.0,easy,control,Experiment 1 (no preview),4,visible,2.0,a,3.0,,3.0,a,b,b,a,0.0,2222.8920000238577
84,21.0,easy,control,Experiment 1 (no preview),5,hidden,3.0,,,,3.0,bb,ba,bb,ba,0.0,5321.45300004771
84,21.0,easy,control,Experiment 1 (no preview),6,hidden,0.0,,,,0.0,aa,ab,aa,aa,1.0,1995.080000035756
84,21.0,easy,control,Experiment 1 (no preview),7,hidden,2.0,,,,2.0,aa,bb,bb,bb,1.0,2135.7320000357577
84,21.0,easy,control,Experiment 1 (no preview),8,hidden,2.0,,,,1.0,ab,aa,aa,aa,1.0,6420.944000011892
84,21.0,easy,control,Experiment 1 (no preview),9,visible,0.0,b,2.0,,3.0,a,b,a,a,1.0,2874.26800003578
84,21.0,easy,control,Experiment 1 (no preview),10,hidden,3.0,,,,1.0,aa,ba,ba,aa,0.0,2342.985000035784
84,21.0,easy,control,Experiment 1 (no preview),11,visible,0.0,a,2.0,,2.0,a,b,b,b,1.0,1463.381000047666
84,21.0,easy,control,Experiment 1 (no preview),12,hidden,0.0,,,,2.0,aa,bb,bb,bb,1.0,2800.3760000476614
84,21.0,easy,control,Experiment 1 (no preview),13,visible,3.0,b,3.0,,0.0,a,b,a,a,1.0,1040.053000011947
84,21.0,easy,control,Experiment 1 (no preview),14,visible,0.0,a,2.0,,3.0,a,b,a,a,1.0,1013.8540000238572
84,21.0,easy,control,Experiment 1 (no preview),15,hidden,2.0,,,,3.0,aa,ab,ab,aa,0.0,1916.8770000119112
84,21.0,easy,control,Experiment 1 (no preview),16,hidden,0.0,,,,3.0,ab,aa,aa,aa,1.0,1781.856000047701
84,21.0,easy,control,Experiment 1 (no preview),17,visible,2.0,b,2.0,,2.0,a,b,b,b,1.0,742.6390000238316
84,21.0,easy,control,Experiment 1 (no preview),18,visible,0.0,b,2.0,,2.0,a,b,b,b,1.0,1278.1599999999744
84,21.0,easy,control,Experiment 1 (no preview),19,visible,0.0,a,2.0,,0.0,a,b,a,a,1.0,2412.1260000238544
84,21.0,easy,control,Experiment 1 (no preview),20,visible,3.0,b,3.0,,3.0,a,b,b,a,0.0,763.8200000119396
85,21.0,easy,control,Experiment 1 (no preview),1,hidden,2.0,,,,2.0,aa,bb,bb,bb,1.0,4280.206000047678
85,21.0,easy,control,Experiment 1 (no preview),2,visible,0.0,b,2.0,,2.0,a,b,b,b,1.0,1017.8600001430603
85,21.0,easy,control,Experiment 1 (no preview),3,visible,2.0,a,3.0,,1.0,a,b,a,a,1.0,1584.0740001907106
85,21.0,easy,control,Experiment 1 (no preview),4,visible,0.0,a,2.0,,3.0,a,b,a,a,1.0,1871.085000000021
85,21.0,easy,control,Experiment 1 (no preview),5,visible,2.0,b,2.0,,2.0,a,b,b,b,1.0,711.4670000476763
85,21.0,easy,control,Experiment 1 (no preview),6,visible,0.0,b,2.0,,3.0,a,b,a,a,1.0,800.9010000000126
85,21.0,easy,control,Experiment 1 (no preview),7,hidden,0.0,,,,0.0,aa,ab,aa,ab,0.0,3467.39600004768
85,21.0,easy,control,Experiment 1 (no preview),8,visible,0.0,a,2.0,,0.0,a,b,a,a,1.0,4138.817000143055
85,21.0,easy,control,Experiment 1 (no preview),9,hidden,0.0,,,,2.0,aa,bb,bb,aa,0.0,935.9550000476884
85,21.0,easy,control,Experiment 1 (no preview),10,hidden,2.0,,,,1.0,ab,aa,aa,aa,1.0,4477.560000143072
85,21.0,easy,control,Experiment 1 (no preview),11,hidden,2.0,,,,3.0,aa,ab,ab,aa,0.0,1187.7440001907526
85,21.0,easy,control,Experiment 1 (no preview),12,hidden,3.0,,,,2.0,aa,bb,aa,aa,1.0,544.9460000476683
85,21.0,easy,control,Experiment 1 (no preview),13,hidden,3.0,,,,1.0,aa,ba,ba,aa,0.0,518.6290000476874
85,21.0,easy,control,Experiment 1 (no preview),14,hidden,3.0,,,,2.0,ab,ba,ab,ab,1.0,513.0540000000037
85,21.0,easy,control,Experiment 1 (no preview),15,hidden,3.0,,,,3.0,bb,ba,bb,bb,1.0,1065.7700001430348
85,21.0,easy,control,Experiment 1 (no preview),16,visible,2.0,a,3.0,,3.0,a,b,b,b,1.0,2530.3570001430344
85,21.0,easy,control,Experiment 1 (no preview),17,hidden,0.0,,,,3.0,ab,aa,aa,aa,1.0,3957.353000143077
85,21.0,easy,control,Experiment 1 (no preview),18,visible,3.0,b,3.0,,3.0,a,b,b,b,1.0,829.6660000476986
85,21.0,easy,control,Experiment 1 (no preview),19,visible,0.0,a,2.0,,2.0,a,b,b,b,1.0,664.2650001907605
85,21.0,easy,control,Experiment 1 (no preview),20,visible,3.0,b,3.0,,0.0,a,b,a,a,1.0,1202.7410000953823
86,21.0,easy,control,Experiment 1 (no preview),1,visible,2.0,a,3.0,,1.0,a,b,a,b,0.0,7456.270000023855
86,21.0,easy,control,Experiment 1 (no preview),2,visible,2.0,b,2.0,,2.0,a,b,b,b,1.0,988.6879999999946
86,21.0,easy,control,Experiment 1 (no preview),3,visible,0.0,a,2.0,,2.0,a,b,b,b,1.0,2105.867999999988
86,21.0,easy,control,Experiment 1 (no preview),4,hidden,3.0,,,,1.0,aa,ba,ba,ba,1.0,1272.5210000357763
86,21.0,easy,control,Experiment 1 (no preview),5,visible,2.0,a,3.0,,3.0,a,b,b,a,0.0,2272.478999999992
86,21.0,easy,control,Experiment 1 (no preview),6,visible,0.0,a,2.0,,3.0,a,b,a,a,1.0,3205.5380000238365
86,21.0,easy,control,Experiment 1 (no preview),7,hidden,0.0,,,,2.0,aa,bb,bb,aa,0.0,4789.739999988087
86,21.0,easy,control,Experiment 1 (no preview),8,hidden,3.0,,,,2.0,ab,ba,ab,ab,1.0,2789.264000023832
86,21.0,easy,control,Experiment 1 (no preview),9,hidden,3.0,,,,3.0,bb,ba,bb,bb,1.0,2005.365000023856
86,21.0,easy,control,Experiment 1 (no preview),10,hidden,2.0,,,,2.0,aa,bb,bb,bb,1.0,2522.518999988068
86,21.0,easy,control,Experiment 1 (no preview),11,hidden,3.0,,,,2.0,aa,bb,aa,aa,1.0,2155.3940000238363
86,21.0,easy,control,Experiment 1 (no preview),12,hidden,0.0,,,,0.0,aa,ab,aa,aa,1.0,4905.853999999992
86,21.0,easy,control,Experiment 1 (no preview),13,hidden,0.0,,,,3.0,ab,aa,aa,ab,0.0,2288.724000035756
86,21.0,easy,control,Experiment 1 (no preview),14,hidden,2.0,,,,3.0,aa,ab,ab,ab,1.0,3106.5560000000114
86,21.0,easy,control,Experiment 1 (no preview),15,visible,0.0,b,2.0,,3.0,a,b,a,a,1.0,1671.9679999999937
86,21.0,easy,control,Experiment 1 (no preview),16,hidden,2.0,,,,1.0,ab,aa,aa,aa,1.0,1405.742000035767
86,21.0,easy,control,Experiment 1 (no preview),17,visible,0.0,b,2.0,,2.0,a,b,b,b,1.0,655.3130000118981
86,21.0,easy,control,Experiment 1 (no preview),18,visible,3.0,b,3.0,,0.0,a,b,a,a,1.0,1905.7129999880565
86,21.0,easy,control,Experiment 1 (no preview),19,visible,3.0,b,3.0,,3.0,a,b,b,b,1.0,771.7050000238232
86,21.0,easy,control,Experiment 1 (no preview),20,visible,0.0,a,2.0,,0.0,a,b,a,a,1.0,588.7430000119493
87,21.0,easy,control,Experiment 1 (no preview),1,hidden,2.0,,,,2.0,aa,bb,bb,aa,0.0,7888.981999999436
87,21.0,easy,control,Experiment 1 (no preview),2,visible,3.0,b,3.0,,0.0,a,b,a,a,1.0,3978.857000000193
87,21.0,easy,control,Experiment 1 (no preview),3,visible,3.0,b,3.0,,3.0,a,b,b,b,1.0,3196.791999999841
87,21.0,easy,control,Experiment 1 (no preview),4,hidden,3.0,,,,1.0,aa,ba,ba,ba,1.0,2824.1369999998133
87,21.0,easy,control,Experiment 1 (no preview),5,visible,0.0,a,2.0,,3.0,a,b,a,b,0.0,4006.401000000187
87,21.0,easy,control,Experiment 1 (no preview),6,hidden,0.0,,,,0.0,aa,ab,aa,aa,1.0,1284.3859999994163
87,21.0,easy,control,Experiment 1 (no preview),7,hidden,0.0,,,,2.0,aa,bb,bb,bb,1.0,5973.736000000557
87,21.0,easy,control,Experiment 1 (no preview),8,hidden,2.0,,,,3.0,aa,ab,ab,ab,1.0,1282.5729999990435
87,21.0,easy,control,Experiment 1 (no preview),9,hidden,2.0,,,,1.0,ab,aa,aa,ab,0.0,3621.451000000176
87,21.0,easy,control,Experiment 1 (no preview),10,visible,2.0,a,3.0,,1.0,a,b,a,b,0.0,2851.2580000002054
87,21.0,easy,control,Experiment 1 (no preview),11,hidden,3.0,,,,2.0,ab,ba,ab,ab,1.0,8134.24599999981
87,21.0,easy,control,Experiment 1 (no preview),12,visible,0.0,b,2.0,,2.0,a,b,b,b,1.0,10332.855999999098
87,21.0,easy,control,Experiment 1 (no preview),13,hidden,3.0,,,,3.0,bb,ba,bb,ba,0.0,2832.7049999998417
87,21.0,easy,control,Experiment 1 (no preview),14,hidden,3.0,,,,2.0,aa,bb,aa,bb,0.0,6301.960999999428
87,21.0,easy,control,Experiment 1 (no preview),15,visible,0.0,b,2.0,,3.0,a,b,a,a,1.0,6484.944999999483
87,21.0,easy,control,Experiment 1 (no preview),16,visible,2.0,a,3.0,,3.0,a,b,b,a,0.0,4589.8339999991
87,21.0,easy,control,Experiment 1 (no preview),17,visible,2.0,b,2.0,,2.0,a,b,b,b,1.0,971.3959999998332
87,21.0,easy,control,Experiment 1 (no preview),18,visible,0.0,a,2.0,,0.0,a,b,a,b,0.0,10190.191999999455
87,21.0,easy,control,Experiment 1 (no preview),19,hidden,0.0,,,,3.0,ab,aa,aa,aa,1.0,3419.9160000005504
87,21.0,easy,control,Experiment 1 (no preview),20,visible,0.0,a,2.0,,2.0,a,b,b,b,1.0,2963.7549999994226
